BMI088 initialized
motor_driver: init (motors disabled by default)
motor_driver: VELOCITY CLOSED-LOOP mode (ESP-side position control)
motor_driver: enabled=NO
motor_driver: encoder LEFT_ID=8 pos=0
motor_driver: encoder RIGHT_ID=7 pos=0
BALANCER: controller initialized (Kp=26.0000 Ki=1.1500 Kd=0.8500 deadband=0.0200)
TUNING: loaded persisted gyro_bias rad/s = 0.002814, 0.006259, -0.000865
TUNING: synced persisted gyro_bias from imu calibration (rad/s = 0.001816, 0.006141, -0.000304)
IMU tasks started
BOOT DEBUG: setup complete, entering main loop

== Main Menu ==
  1 - Calibration (BMI088)
  2 - Motor control
  3 - Madgwick tuning
  5 - Balancer (PID)
  4 - Log channels
  0 - Exit menu
RX: TUNING START 10000
timestamp_ms,pitch_deg,pitch_rad,pitch_rate_deg,pitch_rate_rad,ax,ay,az,gx,gy,gz,temp_C,left_cmd,right_cmd
TUNING: capture started (stream)
TUNING: warmup requested 200 samples (~1.0 s)
TUNING: auto-capture started
TUNING: warmup complete (gyro_bias rad/s = 0.002450, 0.005891, -0.000176) - persisting deferred
3598,-0.940146,-0.016409,0.000000,0.000000,-0.127270,0.238719,-9.776044,-0.003632,0.000795,0.000186,24.750,0.000000,0.000000
3604,-0.936234,-0.016340,0.000000,0.000000,-0.134452,0.231536,-9.761678,-0.002594,0.000738,0.002305,24.750,0.000000,0.000000
3610,-0.931938,-0.016265,0.715996,0.012496,-0.163184,0.202805,-9.783226,-0.000438,0.000731,0.001216,24.750,0.000000,0.000000
3616,-0.928720,-0.016209,0.536188,0.009358,-0.112904,0.260267,-9.768861,0.003828,0.001789,0.001204,24.750,0.000000,0.000000
3622,-0.924137,-0.016129,0.763843,0.013332,-0.184732,0.238719,-9.768861,0.000594,0.000706,0.000127,24.750,0.000000,0.000000
3628,-0.919049,-0.016040,0.848028,0.014801,-0.220647,0.253085,-9.740129,-0.001543,0.000699,0.000125,24.750,0.000000,0.000000
3634,-0.914150,-0.015955,0.816581,0.014252,-0.156001,0.195622,-9.783226,-0.000462,-0.001439,0.001190,24.750,0.000000,0.000000
3640,-0.909226,-0.015869,0.820619,0.014322,-0.134452,0.267450,-9.754495,0.004869,-0.002490,-0.002018,24.750,0.000000,0.000000
3646,-0.904128,-0.015780,0.849665,0.014829,-0.148818,0.288999,-9.790409,0.002690,-0.002465,-0.001998,24.750,0.000000,0.000000
3652,-0.899773,-0.015704,0.725903,0.012669,-0.148818,0.231536,-9.747313,0.000532,-0.000310,-0.001978,24.750,0.000000,0.000000
3658,-0.894709,-0.015616,0.843982,0.014730,-0.199098,0.274633,-9.797592,-0.004800,-0.000307,0.001238,24.750,0.000000,0.000000
3664,-0.890330,-0.015539,0.729816,0.012738,-0.177550,0.281816,-9.811958,-0.002621,0.000762,0.001225,24.750,0.000000,0.000000
3670,-0.886092,-0.015465,0.706213,0.012326,-0.170367,0.267450,-9.804775,0.001666,0.000754,-0.003048,24.750,0.000000,0.000000
3676,-0.881789,-0.015390,0.717232,0.012518,-0.148818,0.253085,-9.804775,-0.001546,-0.000319,-0.001952,24.750,0.000000,0.000000
3682,-0.877886,-0.015322,0.650540,0.011354,-0.120087,0.245902,-9.776044,0.001665,-0.000316,-0.000868,24.750,0.000000,0.000000
3688,-0.873344,-0.015243,0.757057,0.013213,-0.191915,0.181256,-9.819140,0.000583,0.000753,0.001272,24.750,0.000000,0.000000
3694,-0.869008,-0.015167,0.722577,0.012611,-0.177550,0.296182,-9.768861,-0.001553,0.000745,0.000194,24.750,0.000000,0.000000
3700,-0.864328,-0.015085,0.779949,0.013613,-0.177550,0.231536,-9.761678,0.000593,-0.000327,-0.001939,24.750,0.000000,0.000000
3706,-0.859716,-0.015005,0.768779,0.013418,-0.148818,0.274633,-9.797592,0.004848,-0.001389,-0.002985,24.750,0.000000,0.000000
3712,-0.856010,-0.014940,0.617581,0.010779,-0.134452,0.274633,-9.797592,0.001604,0.000755,0.002372,24.750,0.000000,0.000000
3718,-0.852120,-0.014872,0.648397,0.011317,-0.148818,0.288999,-9.725763,-0.000543,0.000748,-0.000848,24.750,0.000000,0.000000
3724,-0.848524,-0.014810,0.599242,0.010459,-0.127270,0.267450,-9.776044,-0.004799,0.000740,0.002356,24.750,0.000000,0.000000
3730,-0.843802,-0.014727,0.787010,0.013736,-0.156001,0.253085,-9.790409,-0.000489,-0.001398,0.002333,24.750,0.000000,0.000000
3736,-0.838600,-0.014636,0.867114,0.015134,-0.191915,0.274633,-9.754495,-0.001550,-0.001384,0.000179,24.750,0.000000,0.000000
3742,-0.833908,-0.014554,0.782003,0.013649,-0.184732,0.260267,-9.761678,0.002727,-0.000305,-0.003019,24.750,0.000000,0.000000
3748,-0.829144,-0.014471,0.793858,0.013855,-0.163184,0.231536,-9.747313,0.000569,-0.001367,-0.000858,24.750,0.000000,0.000000
3754,-0.824790,-0.014395,0.725672,0.012665,-0.134452,0.245902,-9.768861,0.000563,-0.001353,0.001281,24.750,0.000000,0.000000
3760,-0.820929,-0.014328,0.643532,0.011232,-0.127270,0.224353,-9.783226,-0.000508,-0.000275,0.000203,24.750,0.000000,0.000000
3766,-0.816525,-0.014251,0.734041,0.012811,-0.141635,0.281816,-9.811958,-0.000503,-0.001337,-0.000864,24.750,0.000000,0.000000
3772,-0.812046,-0.014173,0.746483,0.013029,-0.148818,0.238719,-9.754495,0.000568,-0.001324,-0.004052,24.750,0.000000,0.000000
3778,-0.807873,-0.014100,0.695585,0.012140,-0.127270,0.245902,-9.725763,0.002693,-0.001310,-0.002946,24.750,0.000000,0.000000
3784,-0.803378,-0.014022,0.749115,0.013075,-0.177550,0.260267,-9.790409,0.001600,-0.000232,-0.001851,24.750,0.000000,0.000000
3790,-0.798869,-0.013943,0.751543,0.013117,-0.177550,0.224353,-9.783226,-0.002677,-0.000230,0.001363,24.750,0.000000,0.000000
3796,-0.794687,-0.013870,0.696990,0.012165,-0.156001,0.267450,-9.732946,0.001611,-0.000227,-0.001846,24.750,0.000000,0.000000
3802,-0.790586,-0.013798,0.683428,0.011928,-0.177550,0.245902,-9.768861,0.001595,0.000840,-0.001828,24.750,0.000000,0.000000
3808,-0.786402,-0.013725,0.697435,0.012173,-0.156001,0.245902,-9.783226,0.000514,-0.000234,0.002452,24.750,0.000000,0.000000
3814,-0.782523,-0.013658,0.646369,0.011281,-0.134452,0.224353,-9.747313,-0.000557,-0.000231,0.002427,24.750,0.000000,0.000000
3820,-0.778257,-0.013583,0.710980,0.012409,-0.163184,0.296182,-9.804775,-0.001616,-0.000229,0.003468,24.750,0.000000,0.000000
3826,-0.774618,-0.013520,0.606624,0.010588,-0.120087,0.253085,-9.740129,0.000530,-0.000227,0.000238,24.750,0.000000,0.000000
3832,-0.769615,-0.013432,0.833861,0.014554,-0.191915,0.281816,-9.732946,0.003721,-0.001290,-0.000830,24.750,0.000000,0.000000
3838,-0.766066,-0.013370,0.591452,0.010323,-0.141635,0.267450,-9.790409,0.002619,0.000854,0.001309,24.750,0.000000,0.000000
3844,-0.762064,-0.013301,0.667002,0.011641,-0.148818,0.209987,-9.797592,-0.001669,-0.000220,0.000231,24.750,0.000000,0.000000
3850,-0.757797,-0.013226,0.711087,0.012411,-0.141635,0.238719,-9.783226,-0.001652,-0.001283,0.001294,24.750,0.000000,0.000000
3856,-0.753258,-0.013147,0.756470,0.013203,-0.163184,0.253085,-9.754495,0.000495,-0.001270,-0.001915,24.750,0.000000,0.000000
3862,-0.748733,-0.013068,0.754256,0.013164,-0.163184,0.224353,-9.811958,-0.002706,-0.001258,0.000234,24.750,0.000000,0.000000
3868,-0.744011,-0.012985,0.787028,0.013736,-0.177550,0.245902,-9.740129,-0.001614,-0.001245,-0.000833,24.750,0.000000,0.000000
3874,-0.740317,-0.012921,0.615651,0.010745,-0.156001,0.245902,-9.732946,-0.001597,0.000898,0.002371,24.750,0.000000,0.000000
3880,-0.737152,-0.012866,0.527516,0.009207,-0.120087,0.253085,-9.740129,0.000549,0.000889,0.000217,24.750,0.000000,0.000000
3886,-0.733089,-0.012795,0.677123,0.011818,-0.184732,0.260267,-9.776044,0.001609,0.000880,0.000215,24.750,0.000000,0.000000
3892,-0.729960,-0.012740,0.521487,0.009102,-0.170367,0.260267,-9.776044,-0.002668,0.003002,0.001278,24.750,0.000000,0.000000
3898,-0.726851,-0.012686,0.518205,0.009044,-0.141635,0.296182,-9.768861,-0.000511,0.001907,0.003396,24.750,0.000000,0.000000
3904,-0.723597,-0.012629,0.542253,0.009464,-0.127270,0.238719,-9.797592,-0.003702,0.000822,0.001231,24.750,0.000000,0.000000
3910,-0.719668,-0.012561,0.654835,0.011429,-0.148818,0.238719,-9.740129,-0.002599,-0.000251,0.001219,24.750,0.000000,0.000000
3916,-0.713798,-0.012458,0.978469,0.017078,-0.184732,0.231536,-9.811958,0.000622,-0.004510,0.001206,24.750,0.000000,0.000000
3922,-0.708177,-0.012360,0.936785,0.016350,-0.220647,0.217170,-9.761678,0.000616,-0.002334,0.000129,24.750,0.000000,0.000000
3928,-0.704385,-0.012294,0.631997,0.011030,-0.170367,0.310547,-9.761678,-0.002586,0.000885,0.000128,24.750,0.000000,0.000000
3934,-0.699874,-0.012215,0.751748,0.013120,-0.170367,0.253085,-9.768861,-0.002560,-0.001254,-0.000939,24.750,0.000000,0.000000
3940,-0.695813,-0.012144,0.676936,0.011815,-0.141635,0.267450,-9.847872,0.001727,-0.001242,-0.003060,24.750,0.000000,0.000000
3946,-0.692771,-0.012091,0.506910,0.008847,-0.120087,0.231536,-9.776044,0.007036,0.000901,-0.000899,24.750,0.000000,0.000000
3952,-0.689167,-0.012028,0.600701,0.010484,-0.134452,0.209987,-9.747313,0.005900,-0.000173,-0.001955,24.750,0.000000,0.000000
3958,-0.684368,-0.011944,0.799772,0.013959,-0.141635,0.217170,-9.761678,0.002645,-0.003367,-0.000870,24.750,0.000000,0.000000
3964,-0.679876,-0.011866,0.748813,0.013069,-0.199098,0.231536,-9.783226,-0.000577,-0.000138,0.001269,24.750,0.000000,0.000000
3970,-0.675225,-0.011785,0.775129,0.013529,-0.184732,0.231536,-9.790409,-0.001636,-0.001202,0.002322,24.750,0.000000,0.000000
3976,-0.671609,-0.011722,0.602613,0.010518,-0.112904,0.288999,-9.776044,0.002641,-0.001190,0.000168,24.750,0.000000,0.000000
3982,-0.667410,-0.011649,0.699854,0.012215,-0.156001,0.260267,-9.790409,0.003680,-0.001178,-0.000899,24.750,0.000000,0.000000
3988,-0.663698,-0.011584,0.618586,0.010796,-0.148818,0.245902,-9.761678,0.000447,-0.000101,-0.003021,24.750,0.000000,0.000000
3994,-0.659873,-0.011517,0.637547,0.011127,-0.156001,0.209987,-9.754495,-0.000622,-0.000100,0.000205,24.750,0.000000,0.000000
4000,-0.655660,-0.011443,0.702273,0.012257,-0.184732,0.267450,-9.776044,0.000449,-0.000099,0.000203,24.750,0.000000,0.000000
4006,-0.651715,-0.011375,0.657352,0.011473,-0.191915,0.260267,-9.754495,0.002575,0.000968,0.000201,24.750,0.000000,0.000000
4012,-0.647219,-0.011296,0.749364,0.013079,-0.206281,0.224353,-9.790409,0.002549,-0.000107,0.000199,24.750,0.000000,0.000000
4018,-0.643254,-0.011227,0.660812,0.011533,-0.170367,0.238719,-9.804775,0.003589,-0.000106,-0.001933,24.750,0.000000,0.000000
4024,-0.640785,-0.011184,0.411510,0.007182,-0.141635,0.253085,-9.761678,0.001423,0.003091,-0.000849,24.750,0.000000,0.000000
4030,-0.636997,-0.011118,0.631339,0.011019,-0.156001,0.288999,-9.783226,0.002474,-0.000136,0.002356,24.750,0.000000,0.000000
4036,-0.632125,-0.011033,0.812108,0.014174,-0.156001,0.267450,-9.747313,0.004580,-0.003331,0.000202,24.750,0.000000,0.000000
4042,-0.627862,-0.010958,0.710473,0.012400,-0.141635,0.238719,-9.776044,0.001338,-0.002232,-0.001931,24.750,0.000000,0.000000
4048,-0.624122,-0.010893,0.623237,0.010878,-0.156001,0.238719,-9.776044,-0.001871,-0.000079,0.002349,24.750,0.000000,0.000000
4054,-0.620564,-0.010831,0.593097,0.010351,-0.170367,0.253085,-9.754495,0.000278,0.000987,0.000195,24.750,0.000000,0.000000
4060,-0.617102,-0.010770,0.576991,0.010070,-0.112904,0.238719,-9.768861,0.000275,-0.001154,-0.001937,24.750,0.000000,0.000000
4066,-0.613206,-0.010702,0.649348,0.011333,-0.170367,0.253085,-9.776044,-0.001858,-0.000077,-0.000853,24.750,0.000000,0.000000
4072,-0.609757,-0.010642,0.574794,0.010032,-0.191915,0.260267,-9.783226,0.001356,0.002055,-0.001909,24.750,0.000000,0.000000
4078,-0.606139,-0.010579,0.602951,0.010523,-0.177550,0.274633,-9.761678,-0.001853,0.000969,-0.001890,24.750,0.000000,0.000000
4084,-0.603864,-0.010539,0.379218,0.006619,-0.134452,0.238719,-9.754495,0.002427,0.003090,-0.001871,24.750,0.000000,0.000000
4090,-0.601693,-0.010502,0.361751,0.006314,-0.177550,0.238719,-9.718580,0.001337,0.005189,-0.000787,24.750,0.000000,0.000000
4096,-0.598943,-0.010454,0.458441,0.008001,-0.141635,0.231536,-9.804775,-0.000807,0.001942,-0.001845,24.750,0.000000,0.000000
4102,-0.595608,-0.010395,0.555824,0.009701,-0.156001,0.224353,-9.783226,-0.001864,0.000857,0.000304,24.750,0.000000,0.000000
4108,-0.591121,-0.010317,0.747755,0.013051,-0.184732,0.260267,-9.747313,0.000285,-0.001282,0.002432,24.750,0.000000,0.000000
4114,-0.587985,-0.010262,0.522714,0.009123,-0.170367,0.274633,-9.790409,0.000282,0.001926,-0.001854,24.750,0.000000,0.000000
4120,-0.584223,-0.010197,0.627052,0.010944,-0.213464,0.238719,-9.776044,-0.001851,0.001907,0.001361,24.750,0.000000,0.000000
4126,-0.580305,-0.010128,0.652995,0.011397,-0.199098,0.238719,-9.797592,-0.002898,0.000823,0.001347,24.750,0.000000,0.000000
4132,-0.577204,-0.010074,0.516809,0.009020,-0.141635,0.274633,-9.790409,0.000327,0.000815,0.000268,24.750,0.000000,0.000000
4138,-0.574440,-0.010026,0.460611,0.008039,-0.170367,0.238719,-9.783226,-0.003938,0.002937,-0.000800,24.750,0.000000,0.000000
4144,-0.570257,-0.009953,0.697275,0.012170,-0.191915,0.238719,-9.747313,0.002494,-0.000288,0.000274,24.750,0.000000,0.000000
4150,-0.567094,-0.009898,0.527090,0.009199,-0.120087,0.260267,-9.732946,0.003534,-0.000285,0.000271,24.750,0.000000,0.000000
4156,-0.564087,-0.009845,0.501174,0.008747,-0.163184,0.260267,-9.783226,-0.000763,0.001848,-0.001862,24.750,0.000000,0.000000
4162,-0.559347,-0.009762,0.789954,0.013787,-0.156001,0.238719,-9.819140,-0.001820,-0.003497,0.000287,24.750,0.000000,0.000000
4168,-0.555813,-0.009701,0.589077,0.010281,-0.148818,0.224353,-9.740129,-0.000737,-0.000266,0.000284,24.750,0.000000,0.000000
4174,-0.552196,-0.009638,0.602791,0.010521,-0.156001,0.281816,-9.754495,-0.000729,-0.000263,-0.000784,24.750,0.000000,0.000000
4180,-0.548656,-0.009576,0.589975,0.010297,-0.177550,0.224353,-9.776044,-0.002853,0.000805,-0.000776,24.750,0.000000,0.000000
4186,-0.544993,-0.009512,0.610493,0.010655,-0.134452,0.281816,-9.761678,-0.001759,-0.001334,-0.000768,24.750,0.000000,0.000000
4192,-0.541780,-0.009456,0.535503,0.009346,-0.156001,0.288999,-9.819140,-0.002807,0.000810,0.000304,24.750,0.000000,0.000000
4198,-0.538342,-0.009396,0.573033,0.010001,-0.170367,0.188439,-9.747313,0.000417,0.000802,0.002432,24.750,0.000000,0.000000
4204,-0.534759,-0.009333,0.597232,0.010424,-0.156001,0.267450,-9.754495,0.000413,-0.000272,0.000277,24.750,0.000000,0.000000
4210,-0.530665,-0.009262,0.682272,0.011908,-0.220647,0.245902,-9.783226,-0.001721,0.000796,-0.002922,24.750,0.000000,0.000000
4216,-0.527678,-0.009210,0.497803,0.008688,-0.141635,0.224353,-9.761678,-0.005965,0.000789,-0.001827,24.750,0.000000,0.000000
4222,-0.523914,-0.009144,0.627319,0.010949,-0.170367,0.217170,-9.740129,-0.000579,-0.000285,-0.000743,24.750,0.000000,0.000000
4228,-0.520196,-0.009079,0.619644,0.010815,-0.141635,0.253085,-9.797592,-0.000574,-0.001347,0.002460,24.750,0.000000,0.000000
4234,-0.517135,-0.009026,0.510236,0.008905,-0.148818,0.303365,-9.776044,-0.001633,0.000797,-0.000761,24.750,0.000000,0.000000
4240,-0.513599,-0.008964,0.589335,0.010286,-0.156001,0.238719,-9.725763,0.000514,-0.000276,-0.000753,24.750,0.000000,0.000000
4246,-0.509981,-0.008901,0.603040,0.010525,-0.163184,0.231536,-9.768861,0.000509,-0.000274,-0.000745,24.750,0.000000,0.000000
4252,-0.506571,-0.008841,0.568266,0.009918,-0.148818,0.288999,-9.797592,-0.003758,-0.000271,0.001393,24.750,0.000000,0.000000
4258,-0.503480,-0.008787,0.515172,0.008991,-0.177550,0.195622,-9.704215,-0.000524,0.001862,0.000313,24.750,0.000000,0.000000
4264,-0.498580,-0.008702,0.816768,0.014255,-0.177550,0.253085,-9.761678,0.005873,-0.003483,-0.000755,24.750,0.000000,0.000000
4270,-0.494853,-0.008637,0.621040,0.010839,-0.148818,0.253085,-9.804775,0.001553,-0.001317,-0.001813,24.750,0.000000,0.000000
4276,-0.490857,-0.008567,0.666041,0.011625,-0.141635,0.296182,-9.761678,0.000472,-0.002369,0.000336,24.750,0.000000,0.000000
4282,-0.487039,-0.008500,0.636373,0.011107,-0.156001,0.245902,-9.768861,0.001533,-0.001280,0.001398,24.750,0.000000,0.000000
4288,-0.483493,-0.008439,0.590971,0.010314,-0.163184,0.281816,-9.740129,-0.000613,-0.000202,0.001384,24.750,0.000000,0.000000
4294,-0.481136,-0.008397,0.392860,0.006857,-0.184732,0.238719,-9.776044,-0.003803,0.004061,-0.000761,24.750,0.000000,0.000000
4300,-0.477418,-0.008333,0.619626,0.010815,-0.227830,0.217170,-9.747313,-0.000569,0.001890,0.000312,24.750,0.000000,0.000000
4306,-0.473932,-0.008272,0.581011,0.010141,-0.134452,0.253085,-9.783226,0.000502,-0.001325,-0.000756,24.750,0.000000,0.000000
4312,-0.469705,-0.008198,0.704550,0.012297,-0.163184,0.245902,-9.790409,0.005823,-0.002377,-0.003944,24.750,0.000000,0.000000
4318,-0.466582,-0.008143,0.520508,0.009085,-0.163184,0.310547,-9.754495,0.003635,0.000843,-0.002840,24.750,0.000000,0.000000
4324,-0.463035,-0.008081,0.591096,0.010317,-0.141635,0.281816,-9.783226,0.002533,-0.001296,-0.001746,24.750,0.000000,0.000000
4330,-0.459580,-0.008021,0.575861,0.010051,-0.134452,0.202805,-9.718580,-0.002819,-0.001283,0.000402,24.750,0.000000,0.000000
4336,-0.456834,-0.007973,0.457729,0.007989,-0.163184,0.224353,-9.790409,-0.004921,0.001925,0.003594,24.750,0.000000,0.000000
4342,-0.454415,-0.007931,0.403123,0.007036,-0.141635,0.217170,-9.804775,-0.000611,0.001906,-0.001768,24.750,0.000000,0.000000
4348,-0.451410,-0.007879,0.500872,0.008742,-0.156001,0.288999,-9.740129,-0.002735,0.000822,-0.000686,24.750,0.000000,0.000000
4354,-0.448113,-0.007821,0.549412,0.009589,-0.177550,0.231536,-9.776044,0.002618,0.000813,-0.000679,24.750,0.000000,0.000000
4360,-0.444179,-0.007752,0.655667,0.011444,-0.170367,0.253085,-9.711398,0.001527,-0.001325,-0.001737,24.750,0.000000,0.000000
4366,-0.440080,-0.007681,0.683175,0.011924,-0.184732,0.202805,-9.804775,-0.001684,-0.001312,-0.001720,24.750,0.000000,0.000000
4372,-0.436542,-0.007619,0.589597,0.010290,-0.170367,0.238719,-9.790409,-0.001667,-0.000234,0.002559,24.750,0.000000,0.000000
4378,-0.433579,-0.007567,0.493984,0.008622,-0.156001,0.267450,-9.754495,-0.001651,0.000834,0.001468,24.750,0.000000,0.000000
4384,-0.430158,-0.007508,0.570014,0.009949,-0.163184,0.288999,-9.711398,0.002627,-0.000240,-0.002808,24.750,0.000000,0.000000
4390,-0.426568,-0.007445,0.598406,0.010444,-0.177550,0.296182,-9.804775,0.003666,-0.000237,-0.002780,24.750,0.000000,0.000000
4396,-0.423479,-0.007391,0.514874,0.008986,-0.141635,0.296182,-9.790409,-0.002762,-0.000235,-0.000622,24.750,0.000000,0.000000
4402,-0.419928,-0.007329,0.591763,0.010328,-0.199098,0.238719,-9.718580,-0.002735,0.000833,0.001515,24.750,0.000000,0.000000
4408,-0.417518,-0.007287,0.401638,0.007010,-0.170367,0.288999,-9.718580,-0.001642,0.002955,0.002565,24.750,0.000000,0.000000
4414,-0.413783,-0.007222,0.622539,0.010865,-0.163184,0.267450,-9.847872,0.001570,-0.001336,-0.000656,24.750,0.000000,0.000000
4420,-0.410234,-0.007160,0.591590,0.010325,-0.148818,0.224353,-9.754495,0.000489,-0.001322,0.001481,24.750,0.000000,0.000000
4426,-0.406768,-0.007099,0.577671,0.010082,-0.170367,0.245902,-9.768861,-0.000581,-0.000244,0.000401,24.750,0.000000,0.000000
4432,-0.403774,-0.007047,0.498906,0.008708,-0.163184,0.260267,-9.768861,0.001555,0.000824,0.001462,24.750,0.000000,0.000000
4438,-0.399862,-0.006979,0.652016,0.011380,-0.177550,0.267450,-9.797592,0.002605,-0.001315,0.000382,24.750,0.000000,0.000000
4444,-0.395295,-0.006899,0.761201,0.013285,-0.199098,0.274633,-9.754495,0.002579,-0.002367,-0.002818,24.750,0.000000,0.000000
4450,-0.391509,-0.006833,0.630948,0.011012,-0.170367,0.245902,-9.768861,-0.002773,-0.001278,0.000407,24.750,0.000000,0.000000
4456,-0.387766,-0.006768,0.623833,0.010888,-0.141635,0.288999,-9.761678,-0.002745,-0.002331,0.002533,24.750,0.000000,0.000000
4462,-0.384611,-0.006713,0.525933,0.009179,-0.127270,0.217170,-9.754495,0.001543,-0.001242,0.001442,24.750,0.000000,0.000000
4468,-0.380973,-0.006649,0.606219,0.010581,-0.163184,0.231536,-9.790409,-0.000603,-0.001230,0.000363,24.750,0.000000,0.000000
4474,-0.377882,-0.006595,0.515217,0.008992,-0.177550,0.260267,-9.768861,0.002599,0.000913,-0.001772,24.750,0.000000,0.000000
4480,-0.374328,-0.006533,0.592408,0.010339,-0.184732,0.238719,-9.783226,0.004704,-0.000161,-0.000689,24.750,0.000000,0.000000
4486,-0.370104,-0.006460,0.703967,0.012287,-0.206281,0.281816,-9.761678,0.003591,-0.001225,0.000384,24.750,0.000000,0.000000
4492,-0.367023,-0.006406,0.513429,0.008961,-0.127270,0.245902,-9.776044,-0.004967,-0.001213,-0.003881,24.750,0.000000,0.000000
4498,-0.363192,-0.006339,0.638543,0.011145,-0.206281,0.260267,-9.740129,-0.002787,-0.000135,-0.001712,24.750,0.000000,0.000000
4504,-0.360272,-0.006288,0.486575,0.008492,-0.141635,0.224353,-9.747313,0.000437,-0.000134,0.001501,24.750,0.000000,0.000000
4510,-0.357642,-0.006242,0.438448,0.007652,-0.148818,0.274633,-9.804775,-0.002763,0.000933,0.000421,24.750,0.000000,0.000000
4516,-0.354264,-0.006183,0.562966,0.009826,-0.148818,0.267450,-9.689849,-0.001670,-0.001207,-0.001714,24.750,0.000000,0.000000
4522,-0.350936,-0.006125,0.554686,0.009681,-0.199098,0.317730,-9.761678,0.001542,0.000936,-0.000632,24.750,0.000000,0.000000
4528,-0.346536,-0.006048,0.733378,0.012800,-0.249378,0.260267,-9.754495,0.000462,-0.000139,-0.000625,24.750,0.000000,0.000000
4534,-0.342203,-0.005973,0.722039,0.012602,-0.220647,0.209987,-9.826324,-0.002739,-0.001203,0.000446,24.750,0.000000,0.000000
4540,-0.337843,-0.005896,0.726784,0.012685,-0.170367,0.260267,-9.768861,0.003680,-0.003322,0.000442,24.750,0.000000,0.000000
4546,-0.335169,-0.005850,0.445594,0.007777,-0.156001,0.260267,-9.761678,-0.001683,0.000973,0.000437,24.750,0.000000,0.000000
4552,-0.333838,-0.005827,0.221785,0.003871,-0.112904,0.224353,-9.747313,-0.001666,0.003094,-0.000632,24.750,0.000000,0.000000
4558,-0.331059,-0.005778,0.463177,0.008084,-0.163184,0.267450,-9.747313,0.000481,0.000932,-0.000626,24.750,0.000000,0.000000
4564,-0.327181,-0.005710,0.646396,0.011282,-0.163184,0.181256,-9.732946,-0.001654,-0.002273,-0.000620,24.750,0.000000,0.000000
4570,-0.323890,-0.005653,0.548438,0.009572,-0.148818,0.224353,-9.768861,-0.002703,-0.001185,0.001517,24.750,0.000000,0.000000
4576,-0.320425,-0.005592,0.577569,0.010080,-0.163184,0.267450,-9.819140,-0.003741,-0.001173,0.000437,24.750,0.000000,0.000000
4582,-0.317635,-0.005544,0.464942,0.008115,-0.141635,0.267450,-9.797592,-0.000508,-0.000096,0.000432,24.750,0.000000,0.000000
4588,-0.315208,-0.005501,0.404471,0.007059,-0.141635,0.238719,-9.747313,0.001628,0.000970,0.000428,24.750,0.000000,0.000000
4594,-0.312723,-0.005458,0.414236,0.007230,-0.120087,0.253085,-9.754495,0.001611,-0.000105,0.000424,24.750,0.000000,0.000000
4600,-0.308671,-0.005387,0.675317,0.011787,-0.206281,0.260267,-9.768861,0.000530,-0.001169,-0.000646,24.750,0.000000,0.000000
4606,-0.305436,-0.005331,0.539202,0.009411,-0.148818,0.209987,-9.732946,0.001590,-0.001157,-0.001705,24.750,0.000000,0.000000
4612,-0.302186,-0.005274,0.541573,0.009452,-0.177550,0.267450,-9.819140,0.002639,-0.000081,0.001508,24.750,0.000000,0.000000
4618,-0.299393,-0.005225,0.465640,0.008127,-0.170367,0.217170,-9.754495,-0.000583,0.000986,0.002558,24.750,0.000000,0.000000
4624,-0.296100,-0.005168,0.548825,0.009579,-0.156001,0.267450,-9.783226,0.004749,-0.001155,-0.004924,24.750,0.000000,0.000000
4630,-0.291322,-0.005085,0.796255,0.013897,-0.235012,0.288999,-9.747313,0.006833,-0.002209,-0.001679,24.750,0.000000,0.000000
4636,-0.287756,-0.005022,0.594324,0.010373,-0.177550,0.238719,-9.826324,0.002503,-0.001121,-0.000597,24.750,0.000000,0.000000
4642,-0.284659,-0.004968,0.516128,0.009008,-0.170367,0.245902,-9.797592,0.001413,-0.000045,0.000474,24.750,0.000000,0.000000
4648,-0.281595,-0.004915,0.510721,0.008914,-0.141635,0.238719,-9.725763,0.000333,-0.001110,-0.000596,24.750,0.000000,0.000000
4654,-0.279752,-0.004883,0.307158,0.005361,-0.134452,0.260267,-9.747313,-0.000735,0.002097,-0.002720,24.750,0.000000,0.000000
4660,-0.277570,-0.004845,0.363641,0.006347,-0.184732,0.253085,-9.783226,0.000337,0.003142,-0.001628,24.750,0.000000,0.000000
4666,-0.274549,-0.004792,0.503557,0.008789,-0.191915,0.267450,-9.790409,0.002464,0.000980,-0.000546,24.750,0.000000,0.000000
4672,-0.271102,-0.004732,0.574514,0.010027,-0.170367,0.209987,-9.783226,0.001375,-0.001161,-0.001606,24.750,0.000000,0.000000
4678,-0.268132,-0.004680,0.494993,0.008639,-0.163184,0.231536,-9.761678,-0.000770,-0.000084,-0.002655,24.750,0.000000,0.000000
4684,-0.265528,-0.004634,0.434037,0.007575,-0.163184,0.274633,-9.761678,-0.002893,0.000982,0.000567,24.750,0.000000,0.000000
4690,-0.263609,-0.004601,0.319738,0.005580,-0.141635,0.281816,-9.840690,-0.002864,0.002038,0.001627,24.750,0.000000,0.000000
4696,-0.260923,-0.004554,0.447657,0.007813,-0.170367,0.224353,-9.840690,-0.001770,0.000952,0.000545,24.750,0.000000,0.000000
4702,-0.257495,-0.004494,0.571384,0.009973,-0.170367,0.224353,-9.776044,0.002509,-0.001188,-0.000526,24.750,0.000000,0.000000
4708,-0.253549,-0.004425,0.657606,0.011477,-0.156001,0.209987,-9.768861,0.002484,-0.003307,-0.001586,24.750,0.000000,0.000000
4714,-0.250464,-0.004371,0.514301,0.008976,-0.148818,0.288999,-9.840690,0.001394,-0.001143,0.002691,24.750,0.000000,0.000000
4720,-0.248112,-0.004330,0.391940,0.006841,-0.148818,0.224353,-9.761678,-0.003947,0.000999,-0.000531,24.750,0.000000,0.000000
4726,-0.245090,-0.004278,0.503593,0.008789,-0.170367,0.209987,-9.761678,-0.002842,-0.000076,0.000539,24.750,0.000000,0.000000
4732,-0.242493,-0.004232,0.432841,0.007555,-0.141635,0.260267,-9.797592,0.004644,-0.000076,-0.001597,24.750,0.000000,0.000000
4738,-0.239540,-0.004181,0.492227,0.008591,-0.141635,0.267450,-9.790409,0.001401,-0.001140,-0.003711,24.750,0.000000,0.000000
4744,-0.237398,-0.004143,0.356962,0.006230,-0.084172,0.288999,-9.761678,0.000322,-0.001129,-0.002609,24.750,0.000000,0.000000
4750,-0.235158,-0.004104,0.373330,0.006516,-0.170367,0.202805,-9.804775,-0.000746,0.002079,-0.001518,24.750,0.000000,0.000000
4756,-0.231896,-0.004047,0.543640,0.009488,-0.163184,0.281816,-9.718580,0.002457,-0.001138,-0.000437,24.750,0.000000,0.000000
4762,-0.228447,-0.003987,0.574870,0.010033,-0.177550,0.209987,-9.754495,0.001367,-0.001127,0.001698,24.750,0.000000,0.000000
4768,-0.226142,-0.003947,0.384189,0.006705,-0.148818,0.224353,-9.740129,0.000288,0.001015,0.002746,24.750,0.000000,0.000000
4774,-0.223179,-0.003895,0.493752,0.008618,-0.170367,0.260267,-9.754495,-0.000780,-0.000060,-0.000477,24.750,0.000000,0.000000
4780,-0.221175,-0.003860,0.334099,0.005831,-0.156001,0.238719,-9.826324,0.001358,0.002071,-0.000472,24.750,0.000000,0.000000
4786,-0.218981,-0.003822,0.365684,0.006382,-0.141635,0.245902,-9.718580,0.001345,0.000985,-0.000468,24.750,0.000000,0.000000
4792,-0.216600,-0.003780,0.396805,0.006926,-0.156001,0.267450,-9.811958,-0.003995,0.000975,0.002733,24.750,0.000000,0.000000
4798,-0.213641,-0.003729,0.493099,0.008606,-0.170367,0.238719,-9.768861,-0.002890,-0.000100,0.003771,24.750,0.000000,0.000000
4804,-0.211437,-0.003690,0.367401,0.006412,-0.170367,0.281816,-9.790409,-0.002861,0.002032,-0.000528,24.750,0.000000,0.000000
4810,-0.210559,-0.003675,0.146402,0.002555,-0.127270,0.296182,-9.783226,-0.006028,0.004142,0.003738,24.750,0.000000,0.000000
4816,-0.208638,-0.003641,0.320107,0.005587,-0.148818,0.260267,-9.768861,-0.001707,0.001970,-0.000560,24.750,0.000000,0.000000
4822,-0.205875,-0.003593,0.460529,0.008038,-0.156001,0.253085,-9.747313,0.002571,-0.000180,0.000511,24.750,0.000000,0.000000
4828,-0.202381,-0.003532,0.582242,0.010162,-0.156001,0.267450,-9.732946,0.002546,-0.002309,0.001571,24.750,0.000000,0.000000
4834,-0.199178,-0.003476,0.533818,0.009317,-0.163184,0.195622,-9.783226,0.001455,-0.001221,0.002620,24.750,0.000000,0.000000
4840,-0.196554,-0.003431,0.437426,0.007635,-0.148818,0.288999,-9.754495,-0.001756,-0.000143,0.000464,24.750,0.000000,0.000000
4846,-0.193627,-0.003379,0.487752,0.008513,-0.170367,0.274633,-9.725763,0.000393,-0.000142,-0.000606,24.750,0.000000,0.000000
4852,-0.191345,-0.003340,0.380434,0.006640,-0.177550,0.267450,-9.754495,-0.000677,0.001990,0.000465,24.750,0.000000,0.000000
4858,-0.189001,-0.003299,0.390597,0.006817,-0.156001,0.253085,-9.768861,0.000395,0.000905,0.000460,24.750,0.000000,0.000000
4864,-0.185991,-0.003246,0.501694,0.008756,-0.177550,0.274633,-9.768861,-0.001739,-0.000169,0.000456,24.750,0.000000,0.000000
4870,-0.182821,-0.003191,0.528275,0.009220,-0.163184,0.303365,-9.754495,-0.000656,-0.001233,0.000451,24.750,0.000000,0.000000
4876,-0.180033,-0.003142,0.464729,0.008111,-0.163184,0.267450,-9.754495,0.001481,-0.000155,-0.001684,24.750,0.000000,0.000000
4882,-0.177886,-0.003105,0.357773,0.006244,-0.170367,0.231536,-9.783226,-0.002795,0.001977,0.000464,24.750,0.000000,0.000000
4888,-0.176602,-0.003082,0.214028,0.003735,-0.134452,0.288999,-9.747313,0.000429,0.003022,0.000459,24.750,0.000000,0.000000
4894,-0.173439,-0.003027,0.527232,0.009202,-0.163184,0.238719,-9.747313,-0.000641,-0.001269,0.001520,24.750,0.000000,0.000000
4900,-0.170497,-0.002976,0.490215,0.008556,-0.148818,0.238719,-9.790409,-0.001700,-0.001256,0.002570,24.750,0.000000,0.000000
4906,-0.168389,-0.002939,0.351421,0.006133,-0.141635,0.202805,-9.732946,0.000448,0.000887,0.002544,24.750,0.000000,0.000000
4912,-0.166135,-0.002900,0.375687,0.006557,-0.127270,0.195622,-9.783226,0.001509,-0.000187,-0.001743,24.750,0.000000,0.000000
4918,-0.163474,-0.002853,0.443493,0.007740,-0.156001,0.267450,-9.747313,0.001493,-0.000186,-0.000660,24.750,0.000000,0.000000
4924,-0.160218,-0.002796,0.542629,0.009471,-0.199098,0.267450,-9.783226,-0.001717,-0.000184,0.002543,24.750,0.000000,0.000000
4930,-0.158244,-0.002762,0.329072,0.005743,-0.134452,0.238719,-9.761678,-0.001700,0.000883,0.000387,24.750,0.000000,0.000000
4936,-0.156937,-0.002739,0.217843,0.003802,-0.112904,0.260267,-9.718580,0.002578,0.001940,-0.001748,24.750,0.000000,0.000000
4942,-0.153710,-0.002683,0.537722,0.009385,-0.170367,0.195622,-9.725763,-0.000644,-0.001275,0.002531,24.750,0.000000,0.000000
4948,-0.150306,-0.002623,0.567386,0.009903,-0.184732,0.238719,-9.761678,-0.001703,-0.001263,0.000375,24.750,0.000000,0.000000
4954,-0.147169,-0.002569,0.522783,0.009124,-0.191915,0.296182,-9.718580,-0.001686,-0.000185,-0.000694,24.750,0.000000,0.000000
4960,-0.143854,-0.002511,0.552509,0.009643,-0.206281,0.303365,-9.783226,-0.004865,-0.000183,0.001443,24.750,0.000000,0.000000
4966,-0.140726,-0.002456,0.521402,0.009100,-0.141635,0.303365,-9.783226,-0.002685,-0.002312,-0.000702,24.750,0.000000,0.000000
4972,-0.139579,-0.002436,0.191047,0.003334,-0.105721,0.274633,-9.776044,0.000537,0.001973,0.000371,24.750,0.000000,0.000000
4978,-0.137725,-0.002404,0.309042,0.005394,-0.156001,0.209987,-9.790409,0.002663,0.001953,0.000367,24.750,0.000000,0.000000
4984,-0.134441,-0.002346,0.547345,0.009553,-0.127270,0.260267,-9.783226,0.000505,-0.003393,-0.000702,24.750,0.000000,0.000000
4990,-0.130070,-0.002270,0.728498,0.012715,-0.206281,0.238719,-9.790409,0.001566,-0.003359,-0.001760,24.750,0.000000,0.000000
4996,-0.126386,-0.002206,0.614032,0.010717,-0.184732,0.224353,-9.790409,0.001550,-0.002260,0.001453,24.750,0.000000,0.000000
5002,-0.123637,-0.002158,0.458127,0.007996,-0.170367,0.231536,-9.732946,-0.001661,-0.000107,0.002504,24.750,0.000000,0.000000
5008,-0.123046,-0.002148,0.098511,0.001719,-0.148818,0.217170,-9.804775,-0.004841,0.005220,0.002479,24.750,0.000000,0.000000
5014,-0.121437,-0.002119,0.268152,0.004680,-0.141635,0.238719,-9.776044,-0.001596,0.001972,0.000324,24.750,0.000000,0.000000
5020,-0.119205,-0.002081,0.372101,0.006494,-0.134452,0.267450,-9.819140,0.000550,-0.000178,-0.001810,24.750,0.000000,0.000000
5026,-0.117162,-0.002045,0.340478,0.005942,-0.120087,0.267450,-9.725763,0.000545,-0.000176,-0.000727,24.750,0.000000,0.000000
5032,-0.113710,-0.001985,0.575237,0.010040,-0.170367,0.267450,-9.847872,0.001605,-0.002305,0.000346,24.750,0.000000,0.000000
5038,-0.110609,-0.001930,0.516959,0.009023,-0.170367,0.253085,-9.718580,0.000523,-0.001217,0.001408,24.750,0.000000,0.000000
5044,-0.108632,-0.001896,0.329355,0.005748,-0.170367,0.267450,-9.776044,0.002649,0.001991,0.000328,24.750,0.000000,0.000000
5050,-0.106958,-0.001867,0.279086,0.004871,-0.148818,0.245902,-9.776044,0.000491,0.001971,-0.000740,24.750,0.000000,0.000000
5056,-0.104317,-0.001821,0.440079,0.007681,-0.191915,0.231536,-9.804775,0.000487,0.000886,-0.001798,24.750,0.000000,0.000000
5062,-0.102345,-0.001786,0.328752,0.005738,-0.091355,0.238719,-9.697032,0.006873,-0.001253,-0.003911,24.750,0.000000,0.000000
5068,-0.100416,-0.001753,0.321409,0.005610,-0.141635,0.238719,-9.776044,0.002544,0.000890,-0.002806,24.750,0.000000,0.000000
5074,-0.097084,-0.001694,0.555351,0.009693,-0.163184,0.231536,-9.768861,-0.000678,-0.002315,-0.000648,24.750,0.000000,0.000000
5080,-0.093540,-0.001633,0.590748,0.010310,-0.206281,0.195622,-9.811958,0.002525,-0.001226,0.000424,24.750,0.000000,0.000000
5086,-0.091068,-0.001589,0.412060,0.007192,-0.156001,0.274633,-9.768861,0.000369,-0.000149,0.002550,24.750,0.000000,0.000000
5092,-0.088326,-0.001542,0.456905,0.007974,-0.148818,0.288999,-9.704215,0.001431,-0.001212,-0.001736,24.750,0.000000,0.000000
5098,-0.087108,-0.001520,0.203035,0.003544,-0.120087,0.281816,-9.754495,-0.000714,0.001996,0.000412,24.750,0.000000,0.000000
5104,-0.085040,-0.001484,0.344696,0.006016,-0.206281,0.238719,-9.761678,0.002489,0.003041,0.000407,24.750,0.000000,0.000000
5110,-0.081375,-0.001420,0.610705,0.010659,-0.163184,0.267450,-9.761678,0.006725,-0.003381,0.000403,24.750,0.000000,0.000000
5116,-0.077708,-0.001356,0.611167,0.010667,-0.191915,0.202805,-9.811958,0.003462,-0.002282,-0.001731,24.750,0.000000,0.000000
5122,-0.075049,-0.001310,0.443175,0.007735,-0.199098,0.260267,-9.797592,-0.004030,0.000937,0.002547,24.750,0.000000,0.000000
5128,-0.071493,-0.001248,0.592762,0.010346,-0.263744,0.260267,-9.811958,-0.005055,0.000927,0.002522,24.750,0.000000,0.000000
5134,-0.068875,-0.001202,0.436236,0.007614,-0.170367,0.281816,-9.776044,0.003518,-0.000147,0.000366,24.750,0.000000,0.000000
5140,-0.067237,-0.001174,0.272992,0.004765,-0.127270,0.288999,-9.776044,0.002418,0.000919,-0.000703,24.750,0.000000,0.000000
5146,-0.064611,-0.001128,0.437775,0.007641,-0.170367,0.224353,-9.704215,0.001328,-0.000155,-0.001761,24.750,0.000000,0.000000
5152,-0.062448,-0.001090,0.360479,0.006292,-0.112904,0.231536,-9.761678,0.002380,-0.001219,-0.001744,24.750,0.000000,0.000000
5158,-0.059321,-0.001035,0.521185,0.009096,-0.156001,0.231536,-9.761678,0.003422,-0.002272,-0.000661,24.750,0.000000,0.000000
5164,-0.057180,-0.000998,0.356772,0.006227,-0.112904,0.231536,-9.754495,0.000192,-0.001184,0.000411,24.750,0.000000,0.000000
5170,-0.054812,-0.000957,0.394676,0.006888,-0.156001,0.217170,-9.768861,0.003386,-0.000107,-0.001724,24.750,0.000000,0.000000
5176,-0.052673,-0.000919,0.356511,0.006222,-0.191915,0.253085,-9.754495,0.001221,0.002025,-0.000641,24.750,0.000000,0.000000
5182,-0.050275,-0.000877,0.399612,0.006975,-0.184732,0.231536,-9.790409,0.002274,0.000939,0.001496,24.750,0.000000,0.000000
5188,-0.047239,-0.000824,0.506124,0.008834,-0.177550,0.224353,-9.747313,0.002251,-0.001201,-0.000650,24.750,0.000000,0.000000
5194,-0.044726,-0.000781,0.418800,0.007309,-0.141635,0.209987,-9.783226,-0.003098,-0.001189,0.001487,24.750,0.000000,0.000000
5200,-0.041778,-0.000729,0.491348,0.008576,-0.199098,0.217170,-9.768861,-0.003067,-0.000112,0.002538,24.750,0.000000,0.000000
5206,-0.038128,-0.000665,0.608335,0.010617,-0.170367,0.238719,-9.704215,-0.001971,-0.003306,0.000382,24.750,0.000000,0.000000
5212,-0.034589,-0.000604,0.589788,0.010294,-0.191915,0.267450,-9.811958,0.001245,-0.002208,0.000378,24.750,0.000000,0.000000
5218,-0.031286,-0.000546,0.550445,0.009607,-0.227830,0.274633,-9.783226,-0.001963,-0.000055,0.001440,24.750,0.000000,0.000000
5224,-0.029294,-0.000511,0.332068,0.005796,-0.134452,0.310547,-9.732946,-0.000878,-0.000055,0.000360,24.750,0.000000,0.000000
5230,-0.027111,-0.000473,0.363748,0.006349,-0.148818,0.260267,-9.768861,-0.000870,-0.000054,-0.000709,24.750,0.000000,0.000000
5236,-0.024734,-0.000432,0.396252,0.006916,-0.163184,0.253085,-9.776044,0.002335,-0.000054,-0.000702,24.750,0.000000,0.000000
5242,-0.021880,-0.000382,0.475602,0.008301,-0.170367,0.245902,-9.718580,0.000181,-0.001118,0.001436,24.750,0.000000,0.000000
5248,-0.018698,-0.000326,0.530454,0.009258,-0.170367,0.245902,-9.826324,0.002310,-0.002172,0.001421,24.750,0.000000,0.000000
5254,-0.016054,-0.000280,0.440599,0.007690,-0.184732,0.202805,-9.797592,0.002287,-0.000020,0.000342,24.750,0.000000,0.000000
5260,-0.014446,-0.000252,0.267941,0.004676,-0.163184,0.231536,-9.776044,-0.000932,0.002111,0.001404,24.750,0.000000,0.000000
5266,-0.012278,-0.000214,0.361352,0.006307,-0.177550,0.245902,-9.819140,-0.003053,0.001024,0.001390,24.750,0.000000,0.000000
5272,-0.010242,-0.000179,0.339312,0.005922,-0.141635,0.274633,-9.790409,-0.001957,-0.000051,0.002441,24.750,0.000000,0.000000
5278,-0.008005,-0.000140,0.372836,0.006507,-0.156001,0.274633,-9.768861,-0.003003,-0.000051,0.001351,24.750,0.000000,0.000000
5284,-0.005002,-0.000087,0.500644,0.008738,-0.184732,0.245902,-9.761678,-0.002973,-0.001116,0.001338,24.750,0.000000,0.000000
5290,-0.002518,-0.000044,0.413850,0.007223,-0.148818,0.217170,-9.783226,-0.004009,-0.001104,0.004520,24.750,0.000000,0.000000
5296,0.000462,0.000008,0.496821,0.008671,-0.184732,0.245902,-9.768861,0.004554,-0.001093,-0.000851,24.750,0.000000,0.000000
5302,0.003489,0.000061,0.504372,0.008803,-0.163184,0.288999,-9.797592,0.003443,-0.002148,0.000222,24.750,0.000000,0.000000
5308,0.005166,0.000090,0.279569,0.004879,-0.120087,0.231536,-9.783226,0.000213,0.000004,-0.000845,24.750,0.000000,0.000000
5314,0.006674,0.000116,0.251230,0.004385,-0.134452,0.274633,-9.790409,0.002341,0.001070,-0.001902,24.750,0.000000,0.000000
5320,0.008864,0.000155,0.365165,0.006373,-0.156001,0.224353,-9.725763,0.002318,-0.000006,0.000248,24.750,0.000000,0.000000
5326,0.010701,0.000187,0.306152,0.005343,-0.105721,0.253085,-9.754495,0.001229,-0.001072,0.000245,24.750,0.000000,0.000000
5332,0.013478,0.000235,0.462702,0.008076,-0.199098,0.217170,-9.761678,0.003347,0.000004,-0.000823,24.750,0.000000,0.000000
5338,0.017134,0.000299,0.609417,0.010636,-0.184732,0.231536,-9.797592,0.002249,-0.003192,-0.002945,24.750,0.000000,0.000000
5344,0.020414,0.000356,0.546686,0.009541,-0.184732,0.202805,-9.761678,0.001161,-0.002094,0.000280,24.750,0.000000,0.000000
5350,0.021909,0.000382,0.249146,0.004348,-0.163184,0.224353,-9.768861,0.000084,0.002188,0.002408,24.750,0.000000,0.000000
5356,0.022928,0.000400,0.169784,0.002963,-0.156001,0.217170,-9.826324,-0.003113,0.003231,0.002384,24.750,0.000000,0.000000
5362,0.024334,0.000425,0.234353,0.004090,-0.156001,0.281816,-9.768861,0.000114,0.002134,0.001295,24.750,0.000000,0.000000
5368,0.027451,0.000479,0.519534,0.009068,-0.199098,0.238719,-9.761678,-0.000952,-0.001084,0.001282,24.750,0.000000,0.000000
5374,0.029987,0.000523,0.422645,0.007377,-0.184732,0.231536,-9.768861,-0.003073,-0.000008,0.000204,24.750,0.000000,0.000000
5380,0.032113,0.000560,0.354274,0.006183,-0.156001,0.260267,-9.768861,-0.000912,-0.000007,-0.000863,24.750,0.000000,0.000000
5386,0.033494,0.000585,0.230272,0.004019,-0.156001,0.267450,-9.797592,-0.000903,0.002123,-0.000855,24.750,0.000000,0.000000
5392,0.034318,0.000599,0.137258,0.002396,-0.141635,0.260267,-9.768861,-0.003024,0.003167,0.000219,24.750,0.000000,0.000000
5398,0.035683,0.000623,0.227453,0.003970,-0.127270,0.253085,-9.761678,0.001267,0.001005,-0.001914,24.750,0.000000,0.000000
5404,0.037051,0.000647,0.228109,0.003981,-0.127270,0.238719,-9.740129,0.004450,0.000995,-0.000829,24.750,0.000000,0.000000
5410,0.038611,0.000674,0.259902,0.004536,-0.141635,0.253085,-9.797592,0.002275,0.000985,0.000244,24.750,0.000000,0.000000
5416,0.041307,0.000721,0.449366,0.007843,-0.170367,0.195622,-9.790409,-0.003074,-0.001155,0.001307,24.750,0.000000,0.000000
5422,0.042397,0.000740,0.181661,0.003171,-0.134452,0.253085,-9.754495,-0.001978,0.002052,0.000229,24.750,0.000000,0.000000
5428,0.044626,0.000779,0.371473,0.006483,-0.163184,0.274633,-9.768861,0.000172,-0.000099,-0.001904,24.750,0.000000,0.000000
5434,0.046856,0.000818,0.371749,0.006488,-0.163184,0.267450,-9.732946,-0.000895,-0.000098,0.001311,24.750,0.000000,0.000000
5440,0.048971,0.000855,0.352465,0.006152,-0.156001,0.217170,-9.776044,0.000180,-0.000097,-0.000833,24.750,0.000000,0.000000
5446,0.051441,0.000898,0.411653,0.007185,-0.156001,0.296182,-9.797592,0.003374,-0.001161,0.000241,24.750,0.000000,0.000000
5452,0.054229,0.000946,0.464710,0.008111,-0.206281,0.231536,-9.833507,-0.001987,-0.000085,0.001304,24.625,0.000000,0.000000
5458,0.057962,0.001012,0.622127,0.010858,-0.220647,0.260267,-9.776044,-0.003032,-0.002214,0.000225,24.625,0.000000,0.000000
5464,0.059481,0.001038,0.253218,0.004419,-0.141635,0.274633,-9.718580,-0.001936,0.001004,-0.000842,24.625,0.000000,0.000000
5470,0.061903,0.001080,0.403661,0.007045,-0.206281,0.245902,-9.754495,0.000214,0.000994,0.000231,24.625,0.000000,0.000000
5476,0.065023,0.001135,0.520006,0.009076,-0.177550,0.274633,-9.732946,0.000211,-0.002212,-0.001901,24.625,0.000000,0.000000
5482,0.066616,0.001163,0.265515,0.004634,-0.148818,0.253085,-9.768861,-0.000856,0.001006,-0.001882,24.625,0.000000,0.000000
5488,0.068239,0.001191,0.270487,0.004721,-0.177550,0.224353,-9.797592,0.000218,0.002061,-0.000798,24.625,0.000000,0.000000
5494,0.069464,0.001212,0.204144,0.003563,-0.148818,0.245902,-9.783226,0.000216,0.002041,0.001340,24.625,0.000000,0.000000
5500,0.071153,0.001242,0.281457,0.004912,-0.156001,0.231536,-9.819140,-0.001917,0.000955,0.000262,24.625,0.000000,0.000000
5506,0.073007,0.001274,0.309116,0.005395,-0.141635,0.231536,-9.804775,-0.001898,-0.000120,0.002390,24.625,0.000000,0.000000
5512,0.074356,0.001298,0.224687,0.003922,-0.105721,0.238719,-9.797592,-0.000814,-0.000119,0.001300,24.625,0.000000,0.000000
5518,0.076207,0.001330,0.308538,0.005385,-0.141635,0.217170,-9.790409,0.002390,-0.000118,-0.000843,24.625,0.000000,0.000000
5524,0.078668,0.001373,0.410143,0.007158,-0.184732,0.217170,-9.754495,0.002367,-0.000116,-0.000835,24.625,0.000000,0.000000
5530,0.080990,0.001414,0.387048,0.006755,-0.148818,0.253085,-9.725763,-0.000853,-0.001181,-0.002957,24.625,0.000000,0.000000
5536,0.083330,0.001454,0.390030,0.006807,-0.177550,0.253085,-9.761678,-0.005106,-0.000103,0.001334,24.625,0.000000,0.000000
5542,0.085747,0.001497,0.402807,0.007030,-0.184732,0.288999,-9.833507,-0.001859,-0.000102,0.000255,24.625,0.000000,0.000000
5548,0.087773,0.001532,0.337600,0.005892,-0.156001,0.231536,-9.761678,0.000290,-0.000101,0.000253,24.625,0.000000,0.000000
5554,0.089630,0.001564,0.309537,0.005402,-0.170367,0.231536,-9.761678,0.001353,0.000965,-0.000815,24.625,0.000000,0.000000
5560,0.091902,0.001604,0.378653,0.006609,-0.148818,0.267450,-9.819140,0.003470,-0.001175,0.000258,24.625,0.000000,0.000000
5566,0.094475,0.001649,0.428824,0.007484,-0.170367,0.224353,-9.783226,0.000239,-0.001164,0.000256,24.625,0.000000,0.000000
5572,0.096873,0.001691,0.399744,0.006977,-0.184732,0.224353,-9.776044,-0.002959,-0.000087,0.002384,24.625,0.000000,0.000000
5578,0.098959,0.001727,0.347634,0.006067,-0.163184,0.281816,-9.790409,-0.000799,-0.000086,0.002360,24.625,0.000000,0.000000
5584,0.101372,0.001769,0.402136,0.007019,-0.134452,0.303365,-9.783226,0.000275,-0.002216,0.000206,24.625,0.000000,0.000000
5590,0.104181,0.001818,0.468264,0.008173,-0.163184,0.231536,-9.768861,-0.001859,-0.002193,-0.002992,24.625,0.000000,0.000000
5596,0.105940,0.001849,0.293110,0.005116,-0.141635,0.253085,-9.768861,0.001356,-0.000041,-0.001897,24.625,0.000000,0.000000
5602,0.108568,0.001895,0.437920,0.007643,-0.177550,0.238719,-9.754495,0.002407,-0.001106,0.000252,24.625,0.000000,0.000000
5608,0.111628,0.001948,0.510009,0.008901,-0.235012,0.288999,-9.754495,0.002383,-0.000029,0.000250,24.625,0.000000,0.000000
5614,0.114650,0.002001,0.503700,0.008791,-0.206281,0.224353,-9.732946,0.002360,-0.001094,-0.000818,24.625,0.000000,0.000000
5620,0.117039,0.002043,0.398281,0.006951,-0.163184,0.260267,-9.783226,0.002336,-0.001083,0.000256,24.625,0.000000,0.000000
5626,0.119227,0.002081,0.364537,0.006362,-0.148818,0.253085,-9.747313,0.000182,-0.001073,-0.000812,24.625,0.000000,0.000000
5632,0.120501,0.002103,0.212394,0.003707,-0.163184,0.253085,-9.776044,-0.003016,0.002134,0.000261,24.625,0.000000,0.000000
5638,0.121112,0.002114,0.101906,0.001779,-0.141635,0.224353,-9.761678,-0.000855,0.003178,0.001324,24.625,0.000000,0.000000
5644,0.123345,0.002153,0.372110,0.006495,-0.177550,0.202805,-9.732946,-0.002977,-0.000050,0.001311,24.625,0.000000,0.000000
5650,0.125864,0.002197,0.419803,0.007327,-0.199098,0.224353,-9.776044,-0.002947,-0.000049,0.001297,24.625,0.000000,0.000000
5656,0.127694,0.002229,0.304973,0.005323,-0.177550,0.267450,-9.833507,-0.002918,0.001017,0.000219,24.625,0.000000,0.000000
5662,0.129964,0.002268,0.378384,0.006604,-0.156001,0.260267,-9.783226,-0.001823,-0.001124,0.001282,24.625,0.000000,0.000000
5668,0.131690,0.002298,0.287668,0.005021,-0.170367,0.217170,-9.811958,-0.000740,0.001018,-0.000861,24.625,0.000000,0.000000
5674,0.132653,0.002315,0.160458,0.002801,-0.141635,0.217170,-9.776044,-0.001798,0.002073,0.000213,24.625,0.000000,0.000000
5680,0.133917,0.002337,0.210720,0.003678,-0.163184,0.274633,-9.790409,-0.001780,0.002052,0.002341,24.625,0.000000,0.000000
5686,0.135731,0.002369,0.302291,0.005276,-0.148818,0.224353,-9.747313,-0.000697,-0.000099,-0.001943,24.625,0.000000,0.000000
5692,0.137981,0.002408,0.375018,0.006545,-0.206281,0.253085,-9.747313,-0.000690,0.000967,0.000207,24.625,0.000000,0.000000
5698,0.139810,0.002440,0.304897,0.005321,-0.177550,0.253085,-9.790409,-0.002813,0.000958,0.002335,24.625,0.000000,0.000000
5704,0.141340,0.002467,0.254971,0.004450,-0.156001,0.267450,-9.790409,-0.000655,0.000948,-0.000884,24.625,0.000000,0.000000
5710,0.143577,0.002506,0.372732,0.006505,-0.206281,0.281816,-9.776044,0.001483,0.000938,0.001255,24.625,0.000000,0.000000
5716,0.145072,0.002532,0.249217,0.004350,-0.127270,0.296182,-9.754495,-0.002793,-0.000136,0.000178,24.625,0.000000,0.000000
5722,0.146704,0.002560,0.272036,0.004748,-0.163184,0.224353,-9.768861,-0.000635,0.000930,-0.003020,24.625,0.000000,0.000000
5728,0.149068,0.002602,0.393977,0.006876,-0.163184,0.238719,-9.768861,0.004698,-0.001209,-0.002990,24.625,0.000000,0.000000
5734,0.152825,0.002667,0.626158,0.010929,-0.184732,0.274633,-9.747313,0.006781,-0.004393,0.000236,24.625,0.000000,0.000000
5740,0.155362,0.002712,0.422796,0.007379,-0.177550,0.245902,-9.732946,0.002452,-0.001153,0.000234,24.625,0.000000,0.000000
5746,0.157208,0.002744,0.307743,0.005371,-0.156001,0.274633,-9.776044,0.000297,-0.000077,0.000231,24.625,0.000000,0.000000
5752,0.158646,0.002769,0.239639,0.004182,-0.127270,0.245902,-9.768861,0.000294,-0.000076,0.001294,24.625,0.000000,0.000000
5758,0.160223,0.002796,0.262782,0.004586,-0.163184,0.209987,-9.754495,-0.000774,0.000990,0.001281,24.625,0.000000,0.000000
5764,0.163267,0.002850,0.507359,0.008855,-0.163184,0.288999,-9.740129,-0.000766,-0.003281,0.001268,24.625,0.000000,0.000000
5770,0.165653,0.002891,0.397703,0.006941,-0.170367,0.217170,-9.768861,-0.001824,-0.001117,0.002321,24.625,0.000000,0.000000
5776,0.167399,0.002922,0.291019,0.005079,-0.177550,0.253085,-9.783226,-0.002871,0.001024,-0.000898,24.625,0.000000,0.000000
5782,0.169578,0.002960,0.363058,0.006337,-0.156001,0.267450,-9.776044,0.000354,-0.001117,-0.001954,24.625,0.000000,0.000000
5788,0.171744,0.002997,0.361008,0.006301,-0.156001,0.267450,-9.768861,0.000350,-0.001105,0.001261,24.625,0.000000,0.000000
5794,0.173165,0.003022,0.236933,0.004135,-0.156001,0.224353,-9.776044,-0.002849,0.001036,0.002314,24.625,0.000000,0.000000
5800,0.174794,0.003051,0.271384,0.004737,-0.170367,0.281816,-9.776044,0.000375,0.001026,-0.000905,24.625,0.000000,0.000000
5806,0.176513,0.003081,0.286597,0.005002,-0.177550,0.288999,-9.819140,0.000371,0.001016,-0.001962,24.625,0.000000,0.000000
5812,0.178174,0.003110,0.276798,0.004831,-0.199098,0.274633,-9.790409,0.000368,0.002071,-0.000877,24.625,0.000000,0.000000
5818,0.179545,0.003134,0.228438,0.003987,-0.177550,0.267450,-9.761678,-0.000701,0.002050,-0.001933,24.625,0.000000,0.000000
5824,0.181486,0.003168,0.323507,0.005646,-0.191915,0.274633,-9.761678,-0.002825,0.000964,-0.000849,24.625,0.000000,0.000000
5830,0.183372,0.003200,0.314407,0.005487,-0.163184,0.231536,-9.811958,-0.000666,-0.000111,0.001291,24.625,0.000000,0.000000
5836,0.185065,0.003230,0.282234,0.004926,-0.148818,0.209987,-9.776044,0.001471,-0.000110,-0.001918,24.625,0.000000,0.000000
5842,0.186554,0.003256,0.248090,0.004330,-0.134452,0.274633,-9.776044,0.001457,-0.000108,-0.002964,24.625,0.000000,0.000000
5848,0.187972,0.003281,0.236324,0.004125,-0.156001,0.217170,-9.776044,-0.001754,0.000958,-0.000804,24.625,0.000000,0.000000
5854,0.189492,0.003307,0.253397,0.004423,-0.163184,0.267450,-9.776044,-0.001736,0.000948,-0.001861,24.625,0.000000,0.000000
5860,0.190945,0.003333,0.242152,0.004226,-0.184732,0.260267,-9.783226,-0.000654,0.002004,-0.000777,24.625,0.000000,0.000000
5866,0.193255,0.003373,0.385039,0.006720,-0.141635,0.217170,-9.811958,-0.002778,-0.002277,-0.000770,24.625,0.000000,0.000000
5872,0.194660,0.003397,0.234087,0.004086,-0.156001,0.217170,-9.797592,-0.001685,0.000942,-0.001827,24.625,0.000000,0.000000
5878,0.195348,0.003409,0.114688,0.002002,-0.156001,0.217170,-9.725763,-0.000603,0.003063,-0.001809,24.625,0.000000,0.000000
5884,0.197137,0.003441,0.298103,0.005203,-0.156001,0.267450,-9.747313,-0.001662,-0.000164,-0.000726,24.625,0.000000,0.000000
5890,0.199154,0.003476,0.336176,0.005867,-0.199098,0.238719,-9.768861,-0.000580,0.000903,0.000347,24.625,0.000000,0.000000
5896,0.201258,0.003513,0.350663,0.006120,-0.206281,0.253085,-9.790409,0.002622,0.000894,0.003539,24.625,0.000000,0.000000
5902,0.202705,0.003538,0.241140,0.004209,-0.184732,0.274633,-9.761678,0.000465,0.001951,0.000308,24.625,0.000000,0.000000
5908,0.204388,0.003567,0.280525,0.004896,-0.148818,0.238719,-9.761678,0.001526,-0.000200,-0.002891,24.625,0.000000,0.000000
5914,0.206461,0.003603,0.345554,0.006031,-0.177550,0.245902,-9.783226,0.001510,-0.000198,-0.000731,24.625,0.000000,0.000000
5920,0.207359,0.003619,0.149582,0.002611,-0.120087,0.253085,-9.776044,0.000430,0.000870,-0.001789,24.625,0.000000,0.000000
5926,0.210027,0.003666,0.444729,0.007762,-0.141635,0.274633,-9.754495,0.001491,-0.003400,-0.000706,24.625,0.000000,0.000000
5932,0.212506,0.003709,0.413160,0.007211,-0.156001,0.209987,-9.761678,-0.001720,-0.002301,0.002497,24.625,0.000000,0.000000
5938,0.214645,0.003746,0.356502,0.006222,-0.184732,0.245902,-9.761678,-0.003833,-0.000147,0.001407,24.625,0.000000,0.000000
5944,0.216444,0.003778,0.299806,0.005233,-0.134452,0.231536,-9.747313,-0.003795,-0.001211,-0.000738,24.625,0.000000,0.000000
5950,0.217961,0.003804,0.252933,0.004415,-0.141635,0.181256,-9.776044,0.001570,-0.000134,0.000335,24.625,0.000000,0.000000
5956,0.219613,0.003833,0.275264,0.004804,-0.177550,0.245902,-9.768861,-0.001642,0.000933,0.001396,24.625,0.000000,0.000000
5962,0.221025,0.003858,0.235328,0.004107,-0.134452,0.267450,-9.740129,-0.001626,-0.000142,0.003513,24.625,0.000000,0.000000
5968,0.223035,0.003893,0.334977,0.005846,-0.177550,0.253085,-9.790409,0.002652,-0.000140,0.000282,24.625,0.000000,0.000000
5974,0.224953,0.003926,0.319718,0.005580,-0.170367,0.245902,-9.740129,0.001560,-0.000139,-0.000786,24.625,0.000000,0.000000
5980,0.228004,0.003979,0.508422,0.008874,-0.199098,0.296182,-9.732946,-0.003782,-0.002268,0.000287,24.625,0.000000,0.000000
5986,0.230924,0.004030,0.486758,0.008496,-0.191915,0.217170,-9.783226,-0.001614,-0.002245,0.000284,24.625,0.000000,0.000000
5992,0.233263,0.004071,0.389854,0.006804,-0.177550,0.245902,-9.768861,-0.001597,-0.001158,0.001347,24.625,0.000000,0.000000
5998,0.234519,0.004093,0.209344,0.003654,-0.127270,0.231536,-9.768861,0.000549,-0.000081,0.001333,24.625,0.000000,0.000000
6004,0.235924,0.004118,0.234130,0.004086,-0.163184,0.238719,-9.732946,0.001609,0.000985,-0.000811,24.625,0.000000,0.000000
6010,0.238156,0.004157,0.371992,0.006492,-0.170367,0.267450,-9.768861,0.003723,-0.001155,-0.001868,24.625,0.000000,0.000000
6016,0.239401,0.004178,0.207449,0.003621,-0.127270,0.231536,-9.761678,-0.000575,-0.000078,0.001347,24.625,0.000000,0.000000
6022,0.240647,0.004200,0.207720,0.003625,-0.127270,0.260267,-9.747313,-0.001635,-0.000077,0.000268,24.625,0.000000,0.000000
6028,0.243259,0.004246,0.435264,0.007597,-0.199098,0.288999,-9.790409,-0.002684,-0.001142,-0.000800,24.625,0.000000,0.000000
6034,0.245496,0.004285,0.372850,0.006507,-0.199098,0.274633,-9.776044,0.001604,-0.000065,0.000273,24.625,0.000000,0.000000
6040,0.247787,0.004325,0.381828,0.006664,-0.177550,0.217170,-9.783226,-0.000542,-0.001130,0.001336,24.625,0.000000,0.000000
6046,0.248110,0.004330,0.053957,0.000942,-0.141635,0.267450,-9.725763,-0.003733,0.003143,0.001322,24.625,0.000000,0.000000
6052,0.249739,0.004359,0.271500,0.004739,-0.156001,0.260267,-9.754495,-0.003695,-0.000085,0.001309,24.625,0.000000,0.000000
6058,0.251861,0.004396,0.353551,0.006171,-0.191915,0.238719,-9.797592,-0.000462,-0.000084,0.000231,24.625,0.000000,0.000000
6064,0.253959,0.004432,0.349660,0.006103,-0.163184,0.217170,-9.718580,0.002738,-0.001148,0.000229,24.625,0.000000,0.000000
6070,0.255408,0.004458,0.241618,0.004217,-0.170367,0.260267,-9.761678,0.002711,0.000994,-0.000839,24.625,0.000000,0.000000
6076,0.257949,0.004502,0.423449,0.007391,-0.170367,0.238719,-9.783226,0.002684,-0.002212,0.000235,24.625,0.000000,0.000000
6082,0.260486,0.004546,0.422836,0.007380,-0.170367,0.267450,-9.761678,0.001591,-0.002190,-0.001898,24.625,0.000000,0.000000
6088,0.262278,0.004578,0.298647,0.005212,-0.170367,0.245902,-9.768861,0.000510,-0.000038,-0.002945,24.625,0.000000,0.000000
6094,0.263590,0.004601,0.218615,0.003816,-0.163184,0.260267,-9.783226,-0.002691,0.001028,-0.000785,24.625,0.000000,0.000000
6100,0.265166,0.004628,0.262762,0.004586,-0.156001,0.217170,-9.776044,-0.000533,-0.000047,0.000289,24.625,0.000000,0.000000
6106,0.267074,0.004661,0.317942,0.005549,-0.127270,0.245902,-9.740129,-0.000528,-0.002178,0.000286,24.625,0.000000,0.000000
6112,0.268832,0.004692,0.292964,0.005113,-0.170367,0.288999,-9.804775,-0.000523,-0.000025,-0.000782,24.625,0.000000,0.000000
6118,0.270090,0.004714,0.209793,0.003662,-0.134452,0.260267,-9.747313,0.001613,-0.000025,0.000291,24.625,0.000000,0.000000
6124,0.271135,0.004732,0.174090,0.003038,-0.120087,0.231536,-9.797592,0.000532,-0.000025,0.000288,24.625,0.000000,0.000000
6130,0.272891,0.004763,0.292658,0.005108,-0.170367,0.245902,-9.761678,-0.000539,-0.000024,0.000285,24.625,0.000000,0.000000
6136,0.274073,0.004783,0.197013,0.003439,-0.156001,0.253085,-9.754495,0.001597,0.001041,0.001347,24.625,0.000000,0.000000
6142,0.275409,0.004807,0.222728,0.003887,-0.141635,0.281816,-9.804775,0.003712,-0.000035,0.001334,24.625,0.000000,0.000000
6148,0.278977,0.004869,0.594622,0.010378,-0.220647,0.231536,-9.740129,0.005805,-0.003230,-0.001875,24.625,0.000000,0.000000
6154,0.280682,0.004899,0.284209,0.004960,-0.141635,0.253085,-9.718580,0.001486,-0.001067,-0.001857,24.625,0.000000,0.000000
6160,0.281105,0.004906,0.070485,0.001230,-0.156001,0.238719,-9.776044,-0.000659,0.003205,-0.001838,24.625,0.000000,0.000000
6166,0.282307,0.004927,0.200223,0.003495,-0.184732,0.245902,-9.761678,-0.001718,0.002107,0.000311,24.625,0.000000,0.000000
6172,0.283006,0.004939,0.116491,0.002033,-0.148818,0.245902,-9.754495,-0.000636,0.002086,0.001373,24.625,0.000000,0.000000
6178,0.284113,0.004959,0.184562,0.003221,-0.177550,0.245902,-9.761678,0.000436,0.002065,0.001359,24.625,0.000000,0.000000
6184,0.286222,0.004996,0.351475,0.006134,-0.170367,0.245902,-9.797592,-0.003830,-0.001151,-0.001850,24.625,0.000000,0.000000
6190,0.287854,0.005024,0.271962,0.004747,-0.163184,0.231536,-9.790409,-0.002726,-0.000074,-0.000766,24.625,0.000000,0.000000
6196,0.289021,0.005044,0.194527,0.003395,-0.156001,0.209987,-9.761678,0.002628,0.000992,-0.000759,24.625,0.000000,0.000000
6202,0.290773,0.005075,0.292124,0.005099,-0.120087,0.253085,-9.790409,0.000471,-0.002214,0.000314,24.625,0.000000,0.000000
6208,0.292455,0.005104,0.280247,0.004891,-0.141635,0.267450,-9.783226,0.002597,-0.001127,-0.000754,24.625,0.000000,0.000000
6214,0.293598,0.005124,0.190440,0.003324,-0.156001,0.238719,-9.797592,0.000440,0.001015,-0.001812,24.625,0.000000,0.000000
6220,0.294167,0.005134,0.094973,0.001658,-0.141635,0.274633,-9.797592,0.000436,0.002070,0.000337,24.625,0.000000,0.000000
6226,0.295581,0.005159,0.235593,0.004112,-0.148818,0.281816,-9.761678,0.001497,-0.000081,0.001399,24.625,0.000000,0.000000
6232,0.298111,0.005203,0.421613,0.007359,-0.227830,0.260267,-9.747313,0.001482,-0.000080,0.000319,24.625,0.000000,0.000000
6238,0.299888,0.005234,0.296175,0.005169,-0.148818,0.281816,-9.754495,-0.000664,-0.001145,-0.000749,24.625,0.000000,0.000000
6244,0.301032,0.005254,0.190676,0.003328,-0.156001,0.224353,-9.740129,-0.003853,0.000997,-0.001807,24.625,0.000000,0.000000
6250,0.302032,0.005271,0.166713,0.002910,-0.120087,0.267450,-9.761678,-0.001684,-0.000078,-0.001789,24.625,0.000000,0.000000
6256,0.304634,0.005317,0.433601,0.007568,-0.156001,0.253085,-9.776044,0.000464,-0.003273,-0.002836,24.625,0.000000,0.000000
6262,0.306918,0.005357,0.380672,0.006644,-0.134452,0.224353,-9.761678,-0.000606,-0.003240,-0.002808,24.625,0.000000,0.000000
6268,0.308792,0.005389,0.312383,0.005452,-0.184732,0.253085,-9.747313,-0.000600,-0.000012,-0.000649,24.625,0.000000,0.000000
6274,0.310419,0.005418,0.271153,0.004733,-0.141635,0.253085,-9.754495,0.003667,-0.001077,-0.000643,24.625,0.000000,0.000000
6280,0.312832,0.005460,0.402225,0.007020,-0.199098,0.260267,-9.797592,0.000434,-0.001066,0.000429,24.625,0.000000,0.000000
6286,0.313994,0.005480,0.193602,0.003379,-0.163184,0.253085,-9.811958,0.000430,0.001075,0.001490,24.625,0.000000,0.000000
6292,0.315736,0.005511,0.290305,0.005067,-0.177550,0.281816,-9.776044,0.000426,-0.000001,0.000410,24.625,0.000000,0.000000
6298,0.316434,0.005523,0.116349,0.002031,-0.156001,0.238719,-9.768861,-0.003840,0.002129,0.002536,24.625,0.000000,0.000000
6304,0.318122,0.005552,0.281407,0.004911,-0.199098,0.260267,-9.747313,-0.002736,0.001043,0.000380,24.625,0.000000,0.000000
6310,0.320579,0.005595,0.409545,0.007148,-0.227830,0.288999,-9.761678,0.001553,-0.000033,-0.000689,24.625,0.000000,0.000000
6316,0.323188,0.005641,0.434673,0.007586,-0.213464,0.253085,-9.776044,-0.000594,-0.001098,0.000383,24.625,0.000000,0.000000
6322,0.325694,0.005684,0.417807,0.007292,-0.206281,0.238719,-9.732946,0.001543,-0.001087,0.001445,24.625,0.000000,0.000000
6328,0.326443,0.005698,0.124793,0.002178,-0.134452,0.274633,-9.790409,0.000462,0.001055,-0.001765,24.625,0.000000,0.000000
6334,0.327893,0.005723,0.241671,0.004218,-0.184732,0.245902,-9.790409,-0.001673,0.001044,0.000383,24.625,0.000000,0.000000
6340,0.329442,0.005750,0.258133,0.004505,-0.191915,0.288999,-9.797592,-0.002722,0.001034,0.000379,24.625,0.000000,0.000000
6346,0.331386,0.005784,0.323967,0.005654,-0.141635,0.224353,-9.790409,0.000502,-0.002173,0.000375,24.625,0.000000,0.000000
6352,0.333166,0.005815,0.296633,0.005177,-0.156001,0.267450,-9.761678,0.000497,-0.001086,-0.001759,24.625,0.000000,0.000000
6358,0.334105,0.005831,0.156610,0.002733,-0.148818,0.267450,-9.740129,-0.000574,0.001056,-0.000676,24.625,0.000000,0.000000
6364,0.335467,0.005855,0.226908,0.003960,-0.127270,0.281816,-9.783226,0.000497,-0.001085,-0.000670,24.625,0.000000,0.000000
6370,0.337160,0.005885,0.282274,0.004927,-0.177550,0.245902,-9.761678,-0.000573,-0.000009,0.001468,24.625,0.000000,0.000000
6376,0.338848,0.005914,0.281269,0.004909,-0.177550,0.267450,-9.768861,0.003694,-0.000009,0.001453,24.625,0.000000,0.000000
6382,0.340026,0.005935,0.196395,0.003428,-0.141635,0.267450,-9.768861,0.004722,-0.000009,0.001439,24.625,0.000000,0.000000
6388,0.341404,0.005959,0.229625,0.004008,-0.156001,0.281816,-9.797592,-0.000651,-0.000009,-0.000706,24.625,0.000000,0.000000
6394,0.343552,0.005996,0.358056,0.006249,-0.184732,0.181256,-9.768861,-0.002775,-0.001074,0.000366,24.625,0.000000,0.000000
6400,0.345230,0.006025,0.279540,0.004879,-0.177550,0.217170,-9.761678,0.002579,0.000002,-0.000703,24.625,0.000000,0.000000
6406,0.346392,0.006046,0.193771,0.003382,-0.141635,0.260267,-9.768861,-0.000643,0.000002,0.000369,24.625,0.000000,0.000000
6412,0.348938,0.006090,0.424210,0.007404,-0.213464,0.260267,-9.761678,0.000429,-0.001063,-0.001765,24.625,0.000000,0.000000
6418,0.349663,0.006103,0.120969,0.002111,-0.163184,0.253085,-9.747313,0.002555,0.002143,0.000383,24.625,0.000000,0.000000
6424,0.350754,0.006122,0.181827,0.003173,-0.163184,0.245902,-9.790409,0.001464,0.001056,-0.000686,24.625,0.000000,0.000000
6430,0.351951,0.006143,0.199387,0.003480,-0.170367,0.267450,-9.761678,-0.000681,0.001046,0.000386,24.625,0.000000,0.000000
6436,0.353374,0.006168,0.237220,0.004140,-0.134452,0.253085,-9.747313,0.000391,-0.001095,0.001448,24.625,0.000000,0.000000
6442,0.355389,0.006203,0.335835,0.005861,-0.177550,0.267450,-9.754495,0.000387,-0.001084,0.003564,24.625,0.000000,0.000000
6448,0.357328,0.006237,0.323167,0.005640,-0.199098,0.274633,-9.783226,0.001449,-0.000008,0.002463,24.625,0.000000,0.000000
6454,0.358000,0.006248,0.112027,0.001955,-0.134452,0.217170,-9.740129,-0.002827,0.001057,0.001373,24.625,0.000000,0.000000
6460,0.358705,0.006261,0.117492,0.002051,-0.163184,0.231536,-9.790409,-0.002799,0.002112,0.000294,24.625,0.000000,0.000000
6466,0.359228,0.006270,0.087205,0.001522,-0.148818,0.245902,-9.740129,-0.000640,0.002091,-0.000774,24.625,0.000000,0.000000
6472,0.359548,0.006275,0.053236,0.000929,-0.134452,0.238719,-9.776044,-0.000634,0.002070,-0.000767,24.625,0.000000,0.000000
6478,0.360643,0.006294,0.182619,0.003187,-0.163184,0.238719,-9.761678,-0.001693,0.000984,0.000306,24.625,0.000000,0.000000
6484,0.362631,0.006329,0.331322,0.005783,-0.148818,0.202805,-9.768861,-0.001676,-0.002222,0.001369,24.625,0.000000,0.000000
6490,0.365594,0.006381,0.493717,0.008617,-0.191915,0.260267,-9.754495,-0.000594,-0.003265,-0.001841,24.625,0.000000,0.000000
6496,0.366499,0.006397,0.150878,0.002633,-0.177550,0.245902,-9.761678,0.001543,0.002094,-0.000757,24.625,0.000000,0.000000
6502,0.366265,0.006393,-0.038905,-0.000679,-0.148818,0.288999,-9.776044,0.001527,0.004204,0.000316,24.625,0.000000,0.000000
6508,0.367751,0.006418,0.247648,0.004322,-0.191915,0.231536,-9.790409,0.000447,0.000966,-0.000753,24.625,0.000000,0.000000
6514,0.369322,0.006446,0.261695,0.004567,-0.120087,0.202805,-9.783226,-0.002754,-0.002240,0.001385,24.625,0.000000,0.000000
6520,0.370787,0.006471,0.244255,0.004263,-0.191915,0.245902,-9.768861,-0.005922,0.000979,0.003502,24.625,0.000000,0.000000
6526,0.372895,0.006508,0.351355,0.006132,-0.184732,0.231536,-9.754495,-0.000536,-0.001162,0.001336,24.625,0.000000,0.000000
6532,0.374485,0.006536,0.264986,0.004625,-0.148818,0.253085,-9.768861,0.000534,-0.001150,0.001323,24.625,0.000000,0.000000
6538,0.375741,0.006558,0.209299,0.003653,-0.177550,0.245902,-9.804775,0.004790,0.000992,-0.001886,24.625,0.000000,0.000000
6544,0.375768,0.006558,0.004500,0.000079,-0.141635,0.224353,-9.754495,0.002612,0.003113,-0.000802,24.625,0.000000,0.000000
6550,0.377246,0.006584,0.246367,0.004300,-0.191915,0.238719,-9.754495,-0.000610,0.000951,-0.000794,24.625,0.000000,0.000000
6556,0.379049,0.006616,0.300404,0.005243,-0.163184,0.231536,-9.768861,0.000461,-0.001189,-0.000786,24.625,0.000000,0.000000
6562,0.380108,0.006634,0.176620,0.003083,-0.163184,0.253085,-9.776044,0.000457,0.000953,-0.000778,24.625,0.000000,0.000000
6568,0.381731,0.006662,0.270464,0.004720,-0.177550,0.281816,-9.797592,0.001517,-0.000121,-0.000770,24.625,0.000000,0.000000
6574,0.382958,0.006684,0.204519,0.003570,-0.148818,0.274633,-9.761678,0.000437,-0.000120,-0.001828,24.625,0.000000,0.000000
6580,0.384978,0.006719,0.336631,0.005875,-0.206281,0.267450,-9.804775,0.001498,-0.000119,-0.001810,24.625,0.000000,0.000000
6586,0.387331,0.006760,0.392224,0.006846,-0.177550,0.224353,-9.740129,0.000417,-0.002248,0.000339,24.625,0.000000,0.000000
6592,0.388166,0.006775,0.139147,0.002429,-0.148818,0.296182,-9.797592,-0.000652,0.000970,-0.002860,24.625,0.000000,0.000000
6598,0.390209,0.006810,0.340504,0.005943,-0.156001,0.274633,-9.747313,0.000420,-0.002236,-0.001766,24.625,0.000000,0.000000
6604,0.390563,0.006817,0.059013,0.001030,-0.141635,0.260267,-9.754495,-0.002780,0.002048,0.000382,24.625,0.000000,0.000000
6610,0.391564,0.006834,0.166797,0.002911,-0.134452,0.274633,-9.725763,-0.000622,-0.000103,-0.000687,24.625,0.000000,0.000000
6616,0.392548,0.006851,0.163929,0.002861,-0.134452,0.238719,-9.761678,0.000450,-0.000102,0.001450,24.625,0.000000,0.000000
6622,0.394022,0.006877,0.245749,0.004289,-0.170367,0.245902,-9.826324,-0.002751,-0.000101,0.000371,24.625,0.000000,0.000000
6628,0.394525,0.006886,0.083848,0.001463,-0.127270,0.224353,-9.819140,-0.003789,0.000965,0.000367,24.625,0.000000,0.000000
6634,0.396040,0.006912,0.252392,0.004405,-0.120087,0.231536,-9.754495,-0.001620,-0.002240,0.000363,24.625,0.000000,0.000000
6640,0.398182,0.006950,0.357091,0.006232,-0.191915,0.288999,-9.761678,-0.001604,-0.001153,0.001425,24.625,0.000000,0.000000
6646,0.399478,0.006972,0.216023,0.003770,-0.184732,0.296182,-9.776044,-0.000523,0.000989,0.001411,24.625,0.000000,0.000000
6652,0.401037,0.006999,0.259796,0.004534,-0.177550,0.231536,-9.804775,-0.000517,-0.000086,0.000331,24.625,0.000000,0.000000
6658,0.401265,0.007003,0.037922,0.000662,-0.134452,0.260267,-9.776044,-0.001577,0.002046,-0.000737,24.625,0.000000,0.000000
6664,0.401841,0.007013,0.096103,0.001677,-0.184732,0.238719,-9.768861,-0.001562,0.003091,-0.000730,24.625,0.000000,0.000000
6670,0.403581,0.007044,0.290021,0.005062,-0.163184,0.245902,-9.783226,0.000585,-0.001202,0.000343,24.625,0.000000,0.000000
6676,0.405421,0.007076,0.306700,0.005353,-0.170367,0.253085,-9.768861,0.001644,-0.001190,-0.000726,24.625,0.000000,0.000000
6682,0.407289,0.007109,0.311232,0.005432,-0.199098,0.281816,-9.776044,-0.001568,-0.000112,-0.000719,24.625,0.000000,0.000000
6688,0.408240,0.007125,0.158575,0.002768,-0.134452,0.202805,-9.768861,0.000578,-0.000111,0.000354,24.625,0.000000,0.000000
6694,0.409536,0.007148,0.215880,0.003768,-0.184732,0.253085,-9.732946,-0.000493,0.000955,0.001415,24.625,0.000000,0.000000
6700,0.410110,0.007158,0.095765,0.001671,-0.134452,0.238719,-9.790409,-0.001553,0.000946,0.001401,24.625,0.000000,0.000000
6706,0.410791,0.007170,0.113401,0.001979,-0.141635,0.274633,-9.754495,-0.000473,0.000936,0.002452,24.625,0.000000,0.000000
6712,0.411739,0.007186,0.158126,0.002760,-0.184732,0.303365,-9.718580,0.000597,0.001992,-0.001833,24.750,0.000000,0.000000
6718,0.411706,0.007186,-0.005532,-0.000097,-0.141635,0.253085,-9.732946,-0.001539,0.003038,0.000316,24.750,0.000000,0.000000
6724,0.412373,0.007197,0.111186,0.001941,-0.191915,0.238719,-9.776044,-0.002589,0.003007,0.002443,24.750,0.000000,0.000000
6730,0.413619,0.007219,0.207640,0.003624,-0.206281,0.253085,-9.811958,-0.002563,0.001912,-0.000777,24.750,0.000000,0.000000
6736,0.414843,0.007240,0.204007,0.003561,-0.177550,0.245902,-9.768861,0.001724,0.000827,-0.000769,24.750,0.000000,0.000000
6742,0.416593,0.007271,0.291715,0.005091,-0.163184,0.245902,-9.768861,0.001706,-0.001312,0.000304,24.750,0.000000,0.000000
6748,0.418139,0.007298,0.257533,0.004495,-0.148818,0.217170,-9.761678,-0.000441,-0.001298,-0.000765,24.750,0.000000,0.000000
6754,0.420691,0.007342,0.425348,0.007424,-0.220647,0.253085,-9.761678,-0.000437,-0.001285,-0.001822,24.750,0.000000,0.000000
6760,0.422139,0.007368,0.241298,0.004211,-0.170367,0.217170,-9.826324,-0.000432,-0.000207,-0.000739,24.750,0.000000,0.000000
6766,0.423758,0.007396,0.269970,0.004712,-0.156001,0.267450,-9.776044,-0.000428,-0.001270,-0.000732,24.750,0.000000,0.000000
6772,0.425405,0.007425,0.274475,0.004790,-0.184732,0.238719,-9.754495,0.001707,-0.000192,0.001406,24.750,0.000000,0.000000
6778,0.427109,0.007454,0.283995,0.004957,-0.163184,0.245902,-9.776044,0.000624,-0.001256,0.000327,24.750,0.000000,0.000000
6784,0.428239,0.007474,0.188324,0.003287,-0.148818,0.253085,-9.783226,-0.000447,-0.000178,-0.000742,24.750,0.000000,0.000000
6790,0.430207,0.007509,0.328022,0.005725,-0.156001,0.260267,-9.747313,0.001688,-0.002307,-0.000734,24.750,0.000000,0.000000
6796,0.431527,0.007532,0.219887,0.003838,-0.163184,0.217170,-9.732946,0.003802,-0.000153,0.001404,24.750,0.000000,0.000000
6802,0.432675,0.007552,0.191423,0.003341,-0.177550,0.217170,-9.797592,0.000568,0.000914,-0.001806,24.750,0.000000,0.000000
6808,0.433330,0.007563,0.109190,0.001906,-0.141635,0.260267,-9.747313,0.000562,0.000905,-0.001788,24.750,0.000000,0.000000
6814,0.433732,0.007570,0.067021,0.001170,-0.148818,0.267450,-9.718580,0.001622,0.001961,-0.002835,24.750,0.000000,0.000000
6820,0.435590,0.007602,0.309666,0.005405,-0.148818,0.245902,-9.747313,0.000540,-0.002320,-0.000677,24.750,0.000000,0.000000
6826,0.436699,0.007622,0.184820,0.003226,-0.148818,0.217170,-9.747313,0.000535,-0.000166,0.000396,24.750,0.000000,0.000000
6832,0.437609,0.007638,0.151692,0.002648,-0.134452,0.253085,-9.732946,0.001595,-0.000165,-0.000674,24.750,0.000000,0.000000
6838,0.439019,0.007662,0.234992,0.004101,-0.170367,0.253085,-9.768861,0.000513,-0.000163,-0.001732,24.750,0.000000,0.000000
6844,0.440219,0.007683,0.199903,0.003489,-0.156001,0.274633,-9.768861,0.002639,-0.000161,-0.000650,24.750,0.000000,0.000000
6850,0.440316,0.007685,0.016164,0.000282,-0.156001,0.238719,-9.732946,0.003678,0.003036,0.001487,24.750,0.000000,0.000000
6856,0.440985,0.007697,0.111502,0.001946,-0.170367,0.281816,-9.761678,0.002576,0.001941,0.001473,24.750,0.000000,0.000000
6862,0.441723,0.007710,0.123055,0.002148,-0.148818,0.238719,-9.776044,-0.001711,0.000856,0.000393,24.750,0.000000,0.000000
6868,0.442822,0.007729,0.183134,0.003196,-0.148818,0.260267,-9.747313,-0.002759,-0.000218,0.003584,24.750,0.000000,0.000000
6874,0.444728,0.007762,0.317688,0.005545,-0.206281,0.231536,-9.790409,-0.000601,-0.000216,0.000353,24.750,0.000000,0.000000
6880,0.445306,0.007772,0.096352,0.001682,-0.163184,0.260267,-9.783226,0.000470,0.001917,-0.002847,24.750,0.000000,0.000000
6886,0.447179,0.007805,0.312188,0.005449,-0.177550,0.238719,-9.790409,-0.000600,-0.001298,-0.000688,24.750,0.000000,0.000000
6892,0.448220,0.007823,0.173401,0.003026,-0.170367,0.267450,-9.768861,-0.001659,0.000845,-0.001746,24.750,0.000000,0.000000
6898,0.449048,0.007837,0.138089,0.002410,-0.156001,0.217170,-9.776044,0.003684,0.000837,0.000402,24.750,0.000000,0.000000
6904,0.449577,0.007847,0.088161,0.001539,-0.134452,0.274633,-9.761678,0.001516,0.000829,0.000398,24.750,0.000000,0.000000
6910,0.451008,0.007872,0.238390,0.004161,-0.199098,0.231536,-9.783226,0.000436,0.000820,0.001459,24.750,0.000000,0.000000
6916,0.451311,0.007877,0.050577,0.000883,-0.170367,0.238719,-9.761678,0.000432,0.002943,0.000379,24.750,0.000000,0.000000
6922,0.451557,0.007881,0.041070,0.000717,-0.112904,0.260267,-9.725763,-0.002769,0.000783,-0.000690,24.750,0.000000,0.000000
6928,0.453134,0.007909,0.262802,0.004587,-0.156001,0.238719,-9.804775,0.002586,-0.001356,-0.001748,24.750,0.000000,0.000000
6934,0.455954,0.007958,0.469922,0.008202,-0.191915,0.281816,-9.747313,0.004690,-0.003473,-0.001731,24.750,0.000000,0.000000
6940,0.458994,0.008011,0.506661,0.008843,-0.235012,0.231536,-9.754495,0.001448,-0.002373,-0.001713,24.750,0.000000,0.000000
6946,0.460908,0.008044,0.319107,0.005569,-0.156001,0.245902,-9.740129,0.001433,-0.002349,-0.001696,24.750,0.000000,0.000000
6952,0.461727,0.008059,0.136355,0.002380,-0.184732,0.253085,-9.797592,-0.000712,0.001936,0.000451,24.750,0.000000,0.000000
6958,0.462112,0.008065,0.064193,0.001120,-0.127270,0.238719,-9.761678,-0.001770,0.000851,0.001512,24.750,0.000000,0.000000
6964,0.462831,0.008078,0.119813,0.002091,-0.177550,0.231536,-9.783226,-0.002818,0.001908,0.002562,24.750,0.000000,0.000000
6970,0.463136,0.008083,0.050977,0.000890,-0.120087,0.245902,-9.754495,-0.004920,0.000823,-0.001724,24.750,0.000000,0.000000
6976,0.465386,0.008123,0.375011,0.006545,-0.206281,0.238719,-9.754495,0.003652,-0.001315,-0.000642,24.750,0.000000,0.000000
6982,0.467514,0.008160,0.354645,0.006190,-0.199098,0.224353,-9.761678,0.004680,-0.001302,0.001495,24.750,0.000000,0.000000
6988,0.468368,0.008175,0.142216,0.002482,-0.134452,0.267450,-9.725763,-0.000693,-0.000224,0.000415,24.750,0.000000,0.000000
6994,0.469136,0.008188,0.128084,0.002235,-0.156001,0.274633,-9.776044,-0.006013,0.000844,0.002541,24.750,0.000000,0.000000
7000,0.470295,0.008208,0.193211,0.003372,-0.184732,0.238719,-9.811958,-0.004887,0.000835,0.003581,24.750,0.000000,0.000000
7006,0.472207,0.008242,0.318573,0.005560,-0.184732,0.267450,-9.790409,-0.001642,-0.001304,0.000350,24.750,0.000000,0.000000
7012,0.472780,0.008252,0.095463,0.001666,-0.141635,0.231536,-9.776044,-0.000561,0.000840,-0.000719,24.750,0.000000,0.000000
7018,0.474459,0.008281,0.279815,0.004884,-0.141635,0.238719,-9.768861,0.006902,-0.002364,-0.001777,24.750,0.000000,0.000000
7024,0.476422,0.008315,0.327235,0.005711,-0.163184,0.245902,-9.776044,0.002572,-0.002341,-0.000694,24.750,0.000000,0.000000
7030,0.478675,0.008354,0.375456,0.006553,-0.184732,0.245902,-9.761678,-0.002780,-0.002317,0.000378,24.750,0.000000,0.000000
7036,0.479792,0.008374,0.186176,0.003249,-0.156001,0.217170,-9.718580,0.001509,-0.000164,-0.000691,24.750,0.000000,0.000000
7042,0.480729,0.008390,0.156169,0.002726,-0.170367,0.245902,-9.754495,-0.000637,0.000903,0.000381,24.750,0.000000,0.000000
7048,0.481755,0.008408,0.171022,0.002985,-0.177550,0.281816,-9.804775,0.000435,0.000894,0.000377,24.750,0.000000,0.000000
7054,0.483158,0.008433,0.233845,0.004081,-0.177550,0.238719,-9.747313,0.002561,-0.000180,0.001439,24.750,0.000000,0.000000
7060,0.484149,0.008450,0.165187,0.002883,-0.148818,0.260267,-9.783226,0.000405,-0.000178,0.000359,24.750,0.000000,0.000000
7066,0.483977,0.008447,-0.028690,-0.000501,-0.170367,0.231536,-9.776044,-0.002795,0.004085,0.000355,24.750,0.000000,0.000000
7072,0.484551,0.008457,0.095703,0.001670,-0.170367,0.209987,-9.797592,-0.002767,0.001913,-0.000713,24.750,0.000000,0.000000
7078,0.486167,0.008485,0.269357,0.004701,-0.191915,0.267450,-9.754495,-0.001674,-0.000236,0.001424,24.750,0.000000,0.000000
7084,0.487682,0.008512,0.252379,0.004405,-0.184732,0.238719,-9.776044,0.001538,-0.000234,-0.000720,24.750,0.000000,0.000000
7090,0.488489,0.008526,0.134505,0.002348,-0.134452,0.281816,-9.754495,-0.000608,-0.000232,-0.000713,24.750,0.000000,0.000000
7096,0.489960,0.008551,0.245175,0.004279,-0.156001,0.209987,-9.768861,0.000464,-0.001295,-0.000706,24.750,0.000000,0.000000
7102,0.491128,0.008572,0.194705,0.003398,-0.213464,0.231536,-9.783226,0.000459,0.001914,-0.000699,24.750,0.000000,0.000000
7108,0.492328,0.008593,0.200005,0.003491,-0.163184,0.274633,-9.754495,-0.001676,-0.000236,0.000373,24.750,0.000000,0.000000
7114,0.493674,0.008616,0.224338,0.003915,-0.148818,0.267450,-9.797592,-0.001659,-0.001298,0.001435,24.750,0.000000,0.000000
7120,0.494997,0.008639,0.220496,0.003848,-0.199098,0.267450,-9.790409,0.000488,0.000845,-0.000710,24.750,0.000000,0.000000
7126,0.496019,0.008657,0.170274,0.002972,-0.177550,0.260267,-9.747313,-0.004844,0.000837,0.001428,24.750,0.000000,0.000000
7132,0.496995,0.008674,0.162804,0.002841,-0.148818,0.245902,-9.754495,-0.004795,-0.000237,0.002479,24.750,0.000000,0.000000
7138,0.498858,0.008707,0.310436,0.005418,-0.184732,0.253085,-9.783226,-0.000486,-0.001300,-0.002873,24.750,0.000000,0.000000
7144,0.501086,0.008746,0.371418,0.006482,-0.184732,0.260267,-9.768861,-0.001546,-0.002352,-0.003909,24.750,0.000000,0.000000
7150,0.502661,0.008773,0.262473,0.004581,-0.191915,0.260267,-9.747313,-0.000466,-0.000198,-0.000674,24.750,0.000000,0.000000
7156,0.503583,0.008789,0.153573,0.002680,-0.120087,0.253085,-9.732946,-0.000461,-0.001261,0.000398,24.750,0.000000,0.000000
7162,0.504726,0.008809,0.190614,0.003327,-0.163184,0.231536,-9.811958,-0.002587,-0.000184,-0.000672,24.750,0.000000,0.000000
7168,0.504692,0.008809,-0.005816,-0.000102,-0.184732,0.245902,-9.783226,-0.003626,0.004080,0.003596,24.750,0.000000,0.000000
7174,0.505147,0.008816,0.075950,0.001326,-0.191915,0.209987,-9.768861,-0.003590,0.002973,0.002495,24.750,0.000000,0.000000
7180,0.506128,0.008834,0.163453,0.002853,-0.148818,0.310547,-9.725763,-0.002489,-0.000252,-0.000726,24.750,0.000000,0.000000
7186,0.507449,0.008857,0.220211,0.003843,-0.148818,0.260267,-9.761678,-0.000333,-0.001315,0.002477,24.750,0.000000,0.000000
7192,0.508290,0.008871,0.140072,0.002445,-0.141635,0.267450,-9.790409,-0.000330,-0.000237,0.002453,24.750,0.000000,0.000000
7198,0.509749,0.008897,0.243281,0.004246,-0.184732,0.253085,-9.783226,0.000738,-0.000234,-0.000768,24.750,0.000000,0.000000
7204,0.511072,0.008920,0.220496,0.003848,-0.148818,0.274633,-9.754495,0.001796,-0.001297,-0.000760,24.750,0.000000,0.000000
7210,0.512874,0.008951,0.300244,0.005240,-0.156001,0.209987,-9.718580,0.000713,-0.002349,-0.002883,24.750,0.000000,0.000000
7216,0.513195,0.008957,0.053548,0.000935,-0.105721,0.260267,-9.776044,-0.001425,-0.000195,0.000342,24.750,0.000000,0.000000
7222,0.515431,0.008996,0.372565,0.006502,-0.242195,0.281816,-9.797592,-0.000345,-0.000193,-0.000727,24.750,0.000000,0.000000
7228,0.516619,0.009017,0.198075,0.003457,-0.141635,0.245902,-9.783226,0.001789,-0.001257,-0.000720,24.750,0.000000,0.000000
7234,0.517738,0.009036,0.186567,0.003256,-0.163184,0.267450,-9.754495,0.000706,-0.000179,0.000353,24.750,0.000000,0.000000
7240,0.518175,0.009044,0.072793,0.001270,-0.141635,0.267450,-9.776044,0.001764,0.000888,0.001414,24.750,0.000000,0.000000
7246,0.519089,0.009060,0.152336,0.002659,-0.148818,0.195622,-9.740129,-0.000384,-0.000186,0.001400,24.750,0.000000,0.000000
7252,0.520515,0.009085,0.237598,0.004147,-0.184732,0.217170,-9.768861,-0.000380,-0.000184,-0.001810,24.750,0.000000,0.000000
7258,0.522587,0.009121,0.345334,0.006027,-0.177550,0.267450,-9.732946,0.000689,-0.002313,-0.003922,24.750,0.000000,0.000000
7264,0.522980,0.009128,0.065563,0.001144,-0.112904,0.224353,-9.732946,0.000682,-0.000159,0.000378,24.750,0.000000,0.000000
7270,0.525310,0.009168,0.388307,0.006777,-0.199098,0.260267,-9.754495,0.001740,-0.002288,0.001440,24.750,0.000000,0.000000
7276,0.527124,0.009200,0.302360,0.005277,-0.163184,0.253085,-9.804775,0.000658,-0.002265,-0.001770,24.750,0.000000,0.000000
7282,0.527390,0.009205,0.044387,0.000775,-0.105721,0.245902,-9.790409,0.000651,-0.000112,-0.001753,24.750,0.000000,0.000000
7288,0.528912,0.009231,0.253553,0.004425,-0.220647,0.245902,-9.761678,0.000645,0.000954,-0.001735,24.750,0.000000,0.000000
7294,0.529312,0.009238,0.066639,0.001163,-0.141635,0.224353,-9.754495,0.000638,0.000945,0.000413,24.750,0.000000,0.000000
7300,0.530986,0.009267,0.279015,0.004870,-0.206281,0.202805,-9.754495,-0.000434,-0.000130,0.001474,24.750,0.000000,0.000000
7306,0.532249,0.009290,0.210580,0.003675,-0.177550,0.281816,-9.819140,0.001701,-0.000129,-0.001737,24.750,0.000000,0.000000
7312,0.533245,0.009307,0.165952,0.002896,-0.184732,0.224353,-9.776044,-0.000446,0.000938,0.000411,24.750,0.000000,0.000000
7318,0.534191,0.009323,0.157761,0.002753,-0.156001,0.260267,-9.783226,-0.003638,-0.000137,0.002538,24.750,0.000000,0.000000
7324,0.535194,0.009341,0.167135,0.002917,-0.184732,0.260267,-9.761678,-0.002536,0.000930,-0.000684,24.750,0.000000,0.000000
7330,0.535537,0.009347,0.057114,0.000997,-0.163184,0.281816,-9.768861,0.000685,0.001986,-0.002807,24.750,0.000000,0.000000
7336,0.536132,0.009357,0.099144,0.001730,-0.156001,0.274633,-9.783226,-0.003583,0.000901,0.000417,24.750,0.000000,0.000000
7342,0.538334,0.009396,0.367051,0.006406,-0.191915,0.231536,-9.811958,-0.001416,-0.002304,-0.001718,24.750,0.000000,0.000000
7348,0.539300,0.009413,0.160972,0.002809,-0.156001,0.260267,-9.732946,0.000728,-0.000150,-0.000636,24.750,0.000000,0.000000
7354,0.539612,0.009418,0.051973,0.000907,-0.163184,0.260267,-9.797592,-0.003540,0.001982,0.000436,24.750,0.000000,0.000000
7360,0.540302,0.009430,0.115082,0.002009,-0.163184,0.274633,-9.747313,-0.004570,0.000897,0.001497,24.750,0.000000,0.000000
7366,0.541207,0.009446,0.150878,0.002633,-0.177550,0.224353,-9.747313,-0.000263,0.000888,-0.000649,24.750,0.000000,0.000000
7372,0.541876,0.009458,0.111382,0.001944,-0.134452,0.245902,-9.783226,0.000805,-0.000187,-0.002773,24.750,0.000000,0.000000
7378,0.542566,0.009470,0.115090,0.002009,-0.163184,0.231536,-9.747313,-0.000269,0.000881,0.001516,24.750,0.000000,0.000000
7384,0.543313,0.009483,0.124464,0.002172,-0.141635,0.281816,-9.783226,-0.000266,-0.000194,0.001501,24.750,0.000000,0.000000
7390,0.544362,0.009501,0.174801,0.003051,-0.163184,0.253085,-9.776044,-0.002394,-0.000192,0.001486,24.750,0.000000,0.000000
7396,0.544738,0.009507,0.062708,0.001094,-0.141635,0.224353,-9.804775,0.000826,0.000876,0.000406,24.750,0.000000,0.000000
7402,0.545151,0.009515,0.068818,0.001201,-0.170367,0.296182,-9.790409,0.000818,0.001932,0.001467,24.750,0.000000,0.000000
7408,0.546780,0.009543,0.271482,0.004738,-0.177550,0.209987,-9.811958,-0.000256,-0.001283,-0.001743,24.750,0.000000,0.000000
7414,0.548137,0.009567,0.226170,0.003947,-0.184732,0.245902,-9.783226,-0.000253,-0.000205,-0.000661,24.750,0.000000,0.000000
7420,0.549569,0.009592,0.238719,0.004166,-0.191915,0.231536,-9.783226,-0.000251,-0.000203,0.003607,24.750,0.000000,0.000000
7426,0.550931,0.009616,0.226979,0.003962,-0.184732,0.288999,-9.754495,-0.002379,-0.000201,-0.001755,24.750,0.000000,0.000000
7432,0.551784,0.009630,0.142144,0.002481,-0.148818,0.253085,-9.725763,-0.000224,-0.000199,-0.000673,24.750,0.000000,0.000000
7438,0.551888,0.009632,0.017405,0.000304,-0.148818,0.260267,-9.761678,0.004039,0.001934,0.000399,24.750,0.000000,0.000000
7444,0.552332,0.009640,0.073976,0.001291,-0.120087,0.238719,-9.732946,0.001868,-0.000216,0.000395,24.750,0.000000,0.000000
7450,0.553169,0.009655,0.139379,0.002433,-0.148818,0.231536,-9.761678,0.000784,-0.000214,0.001457,24.750,0.000000,0.000000
7456,0.553758,0.009665,0.098264,0.001715,-0.156001,0.253085,-9.740129,0.002907,0.000853,-0.001754,24.750,0.000000,0.000000
7462,0.554490,0.009678,0.122045,0.002130,-0.141635,0.224353,-9.768861,0.000747,-0.000220,0.001460,24.750,0.000000,0.000000
7468,0.555789,0.009700,0.216352,0.003776,-0.206281,0.238719,-9.740129,0.002870,0.000847,-0.001751,24.750,0.000000,0.000000
7474,0.556919,0.009720,0.188417,0.003289,-0.170367,0.274633,-9.826324,0.001776,-0.000227,-0.000668,24.750,0.000000,0.000000
7480,0.558121,0.009741,0.200254,0.003495,-0.148818,0.296182,-9.754495,0.001759,-0.001290,0.000404,24.750,0.000000,0.000000
7486,0.559316,0.009762,0.199205,0.003477,-0.148818,0.281816,-9.776044,-0.002520,-0.001277,-0.000665,24.750,0.000000,0.000000
7492,0.561546,0.009801,0.371729,0.006488,-0.170367,0.253085,-9.747313,0.000701,-0.003395,-0.000659,24.750,0.000000,0.000000
7498,0.563031,0.009827,0.247434,0.004319,-0.170367,0.231536,-9.732946,0.002825,-0.001230,-0.000652,24.750,0.000000,0.000000
7504,0.565062,0.009862,0.338468,0.005907,-0.184732,0.224353,-9.768861,-0.000400,-0.002283,0.000420,24.750,0.000000,0.000000
7510,0.566706,0.009891,0.274035,0.004783,-0.184732,0.260267,-9.776044,-0.000396,-0.001195,0.001481,24.750,0.000000,0.000000
7516,0.567060,0.009897,0.059053,0.001031,-0.170367,0.202805,-9.768861,0.001739,0.002013,-0.001730,24.750,0.000000,0.000000
7522,0.567747,0.009909,0.114521,0.001999,-0.141635,0.267450,-9.747313,0.000656,-0.000138,-0.000647,24.750,0.000000,0.000000
7528,0.568897,0.009929,0.191672,0.003345,-0.148818,0.274633,-9.732946,0.001715,-0.001202,0.000424,24.750,0.000000,0.000000
7534,0.569100,0.009933,0.033724,0.000589,-0.134452,0.245902,-9.790409,-0.000433,0.000941,-0.000645,24.750,0.000000,0.000000
7540,0.569524,0.009940,0.070641,0.001233,-0.148818,0.231536,-9.711398,-0.000428,0.000931,-0.000639,24.750,0.000000,0.000000
7546,0.570487,0.009957,0.160554,0.002802,-0.163184,0.238719,-9.776044,0.001706,-0.000143,0.002564,24.750,0.000000,0.000000
7552,0.571922,0.009982,0.239208,0.004175,-0.170367,0.253085,-9.768861,0.003820,-0.001207,0.001473,24.750,0.000000,0.000000
7558,0.573062,0.010002,0.189938,0.003315,-0.148818,0.288999,-9.776044,0.002716,-0.001195,-0.001738,24.750,0.000000,0.000000
7564,0.574526,0.010027,0.243975,0.004258,-0.199098,0.224353,-9.790409,0.000559,-0.000118,-0.000655,24.750,0.000000,0.000000
7570,0.574945,0.010035,0.069947,0.001221,-0.177550,0.202805,-9.790409,-0.001577,0.002014,0.000417,24.750,0.000000,0.000000
7576,0.576073,0.010054,0.187955,0.003280,-0.148818,0.245902,-9.783226,0.000569,-0.001202,-0.000653,24.750,0.000000,0.000000
7582,0.577311,0.010076,0.206293,0.003600,-0.156001,0.267450,-9.711398,0.001629,-0.001190,-0.000646,24.750,0.000000,0.000000
7588,0.578796,0.010102,0.247585,0.004321,-0.148818,0.274633,-9.783226,-0.001584,-0.002243,-0.001705,24.750,0.000000,0.000000
7594,0.579278,0.010110,0.080228,0.001400,-0.156001,0.253085,-9.761678,-0.001568,0.000975,-0.001688,24.750,0.000000,0.000000
7600,0.580245,0.010127,0.161301,0.002815,-0.191915,0.238719,-9.819140,0.000578,0.000965,-0.000606,24.750,0.000000,0.000000
7606,0.581915,0.010156,0.278232,0.004856,-0.163184,0.260267,-9.776044,0.002703,-0.002240,0.000465,24.750,0.000000,0.000000
7612,0.583189,0.010179,0.212296,0.003705,-0.163184,0.224353,-9.804775,0.002676,-0.001153,0.002591,24.750,0.000000,0.000000
7618,0.583236,0.010179,0.007933,0.000138,-0.127270,0.209987,-9.776044,-0.001612,0.000989,0.000435,24.750,0.000000,0.000000
7624,0.583946,0.010192,0.118363,0.002066,-0.148818,0.231536,-9.768861,-0.003726,-0.000086,0.002561,24.750,0.000000,0.000000
7630,0.584970,0.010210,0.170630,0.002978,-0.170367,0.253085,-9.718580,-0.001558,-0.000085,0.002536,24.750,0.000000,0.000000
7636,0.585220,0.010214,0.041648,0.000727,-0.141635,0.209987,-9.768861,-0.001543,0.000981,0.000380,24.750,0.000000,0.000000
7642,0.585617,0.010221,0.066212,0.001156,-0.177550,0.253085,-9.768861,-0.000462,0.002037,-0.000690,24.750,0.000000,0.000000
7648,0.587130,0.010247,0.252112,0.004400,-0.177550,0.274633,-9.725763,0.000608,-0.001179,-0.000683,24.750,0.000000,0.000000
7654,0.588121,0.010265,0.165116,0.002882,-0.141635,0.238719,-9.732946,0.001667,-0.001168,0.000390,24.750,0.000000,0.000000
7660,0.589853,0.010295,0.288664,0.005038,-0.141635,0.288999,-9.740129,0.002716,-0.003287,-0.002810,24.750,0.000000,0.000000
7666,0.589776,0.010294,-0.012815,-0.000224,-0.120087,0.245902,-9.783226,-0.001573,0.001007,0.000414,24.750,0.000000,0.000000
7672,0.589803,0.010294,0.004553,0.000079,-0.127270,0.260267,-9.754495,-0.001557,0.000997,0.001475,24.750,0.000000,0.000000
7678,0.591775,0.010328,0.328676,0.005736,-0.213464,0.260267,-9.790409,-0.001541,-0.001143,0.000395,24.750,0.000000,0.000000
7684,0.593244,0.010354,0.244766,0.004272,-0.177550,0.245902,-9.754495,-0.002591,-0.001132,0.000391,24.750,0.000000,0.000000
7690,0.594444,0.010375,0.199979,0.003490,-0.184732,0.281816,-9.783226,0.002761,-0.000055,-0.001744,24.750,0.000000,0.000000
7696,0.595985,0.010402,0.256870,0.004483,-0.156001,0.238719,-9.740129,0.003799,-0.002185,-0.002791,24.750,0.000000,0.000000
7702,0.597025,0.010420,0.173316,0.003025,-0.148818,0.260267,-9.790409,0.000565,-0.001098,-0.000633,24.750,0.000000,0.000000
7708,0.598477,0.010445,0.241965,0.004223,-0.177550,0.274633,-9.754495,0.003755,-0.001087,-0.001692,24.750,0.000000,0.000000
7714,0.600484,0.010480,0.334501,0.005838,-0.191915,0.281816,-9.776044,0.000522,-0.002141,-0.001675,24.750,0.000000,0.000000
7720,0.601447,0.010497,0.160598,0.002803,-0.170367,0.267450,-9.783226,-0.001614,0.000011,-0.002724,24.750,0.000000,0.000000
7726,0.601256,0.010494,-0.031812,-0.000555,-0.141635,0.310547,-9.747313,-0.002663,0.002141,0.001565,24.750,0.000000,0.000000
7732,0.601910,0.010505,0.108998,0.001902,-0.148818,0.253085,-9.732946,-0.002637,-0.000011,0.001549,24.750,0.000000,0.000000
7738,0.603105,0.010526,0.199214,0.003477,-0.213464,0.253085,-9.783226,-0.001545,0.001054,-0.000597,24.750,0.000000,0.000000
7744,0.603015,0.010525,-0.015092,-0.000263,-0.199098,0.253085,-9.776044,-0.001529,0.004240,-0.002722,24.750,0.000000,0.000000
7750,0.603883,0.010540,0.144697,0.002525,-0.163184,0.231536,-9.768861,-0.003645,-0.000064,0.000502,24.750,0.000000,0.000000
7756,0.604611,0.010552,0.121307,0.002117,-0.127270,0.281816,-9.761678,-0.000412,-0.001128,0.000497,24.750,0.000000,0.000000
7762,0.605377,0.010566,0.127755,0.002230,-0.156001,0.274633,-9.761678,0.001722,-0.000052,-0.000574,24.750,0.000000,0.000000
7768,0.606587,0.010587,0.201580,0.003518,-0.163184,0.224353,-9.833507,0.002770,-0.001117,0.000497,24.750,0.000000,0.000000
7774,0.607638,0.010605,0.175193,0.003058,-0.177550,0.260267,-9.754495,0.001677,-0.000040,0.001558,24.750,0.000000,0.000000
7780,0.607923,0.010610,0.047527,0.000829,-0.148818,0.267450,-9.747313,0.000595,0.001025,0.000477,24.750,0.000000,0.000000
7786,0.608975,0.010629,0.175326,0.003060,-0.177550,0.245902,-9.776044,0.001655,-0.000050,0.000472,24.750,0.000000,0.000000
7792,0.609725,0.010642,0.124909,0.002180,-0.156001,0.267450,-9.761678,0.000573,-0.000050,0.000467,24.750,0.000000,0.000000
7798,0.609430,0.010637,-0.049154,-0.000858,-0.134452,0.231536,-9.797592,-0.000498,0.002082,0.000463,24.750,0.000000,0.000000
7804,0.608965,0.010628,-0.077524,-0.001353,-0.148818,0.296182,-9.776044,-0.002624,0.003126,0.003654,24.750,0.000000,0.000000
7810,0.609731,0.010642,0.127755,0.002230,-0.156001,0.238719,-9.740129,0.003794,-0.000101,0.001487,24.750,0.000000,0.000000
7816,0.609839,0.010644,0.017991,0.000314,-0.134452,0.224353,-9.761678,0.000560,0.000965,-0.001724,24.750,0.000000,0.000000
7822,0.610337,0.010652,0.082949,0.001448,-0.163184,0.224353,-9.811958,-0.001576,0.000955,-0.000641,24.750,0.000000,0.000000
7828,0.610831,0.010661,0.082309,0.001437,-0.163184,0.231536,-9.811958,-0.002625,0.000946,0.000430,24.750,0.000000,0.000000
7834,0.611602,0.010674,0.128475,0.002242,-0.156001,0.260267,-9.768861,-0.004730,-0.000129,0.000426,24.750,0.000000,0.000000
7840,0.612778,0.010695,0.196163,0.003424,-0.184732,0.253085,-9.776044,-0.003617,-0.000128,-0.000644,24.750,0.000000,0.000000
7846,0.612605,0.010692,-0.028886,-0.000504,-0.141635,0.224353,-9.790409,-0.000385,0.002004,0.000428,24.750,0.000000,0.000000
7852,0.613071,0.010700,0.077693,0.001356,-0.134452,0.288999,-9.754495,0.001749,-0.000146,0.001489,24.750,0.000000,0.000000
7858,0.613681,0.010711,0.101537,0.001772,-0.170367,0.202805,-9.761678,-0.002529,0.000920,0.000409,24.750,0.000000,0.000000
7864,0.612963,0.010698,-0.119617,-0.002088,-0.127270,0.231536,-9.768861,-0.001439,0.003042,-0.001726,24.750,0.000000,0.000000
7870,0.613519,0.010708,0.092643,0.001617,-0.163184,0.274633,-9.718580,-0.000359,0.000881,-0.003839,24.750,0.000000,0.000000
7876,0.615865,0.010749,0.391073,0.006826,-0.163184,0.238719,-9.819140,-0.000355,-0.004454,-0.000605,24.750,0.000000,0.000000
7882,0.616475,0.010760,0.101555,0.001772,-0.120087,0.238719,-9.797592,0.000713,-0.001214,0.002597,24.750,0.000000,0.000000
7888,0.615893,0.010749,-0.096850,-0.001690,-0.112904,0.253085,-9.783226,-0.004620,0.001994,0.000441,24.750,0.000000,0.000000
7894,0.615749,0.010747,-0.024137,-0.000421,-0.141635,0.217170,-9.754495,-0.003509,0.001974,-0.002760,24.750,0.000000,0.000000
7900,0.615859,0.010749,0.018445,0.000322,-0.134452,0.217170,-9.776044,0.000788,0.000889,-0.000602,24.750,0.000000,0.000000
7906,0.617187,0.010772,0.221279,0.003862,-0.141635,0.296182,-9.732946,0.001845,-0.002316,-0.001661,24.750,0.000000,0.000000
7912,0.619905,0.010819,0.452945,0.007905,-0.242195,0.231536,-9.768861,0.000761,-0.002293,-0.000579,24.750,0.000000,0.000000
7918,0.620306,0.010826,0.066879,0.001167,-0.156001,0.245902,-9.783226,-0.001377,0.000926,-0.002704,24.750,0.000000,0.000000
7924,0.620467,0.010829,0.026832,0.000468,-0.191915,0.260267,-9.768861,-0.001363,0.003048,0.000519,24.750,0.000000,0.000000
7930,0.620962,0.010838,0.082478,0.001440,-0.163184,0.245902,-9.761678,-0.000284,0.000886,0.001579,24.750,0.000000,0.000000
7936,0.620701,0.010833,-0.043400,-0.000757,-0.134452,0.310547,-9.754495,0.000784,0.001943,-0.000567,24.750,0.000000,0.000000
7942,0.621525,0.010848,0.137324,0.002397,-0.184732,0.253085,-9.768861,0.001841,0.000858,-0.001627,24.750,0.000000,0.000000
7948,0.622210,0.010860,0.114050,0.001991,-0.148818,0.245902,-9.718580,0.002888,-0.000216,0.000520,24.750,0.000000,0.000000
7954,0.623409,0.010881,0.199881,0.003489,-0.134452,0.245902,-9.811958,0.003925,-0.002344,-0.000550,24.750,0.000000,0.000000
7960,0.624429,0.010898,0.169954,0.002966,-0.199098,0.253085,-9.747313,0.001755,0.000875,-0.001610,24.750,0.000000,0.000000
7966,0.624969,0.010908,0.090118,0.001573,-0.191915,0.253085,-9.768861,0.000672,0.001932,-0.000529,24.750,0.000000,0.000000
7972,0.625702,0.010921,0.122143,0.002132,-0.127270,0.274633,-9.747313,0.000665,-0.001283,0.000542,24.750,0.000000,0.000000
7978,0.627343,0.010949,0.273412,0.004772,-0.191915,0.245902,-9.761678,-0.000407,-0.001271,-0.000529,24.750,0.000000,0.000000
7984,0.627924,0.010959,0.096886,0.001691,-0.170367,0.260267,-9.747313,-0.004664,0.000873,0.002672,24.750,0.000000,0.000000
7990,0.628976,0.010978,0.175335,0.003060,-0.177550,0.231536,-9.790409,-0.002487,-0.000201,0.000515,24.750,0.000000,0.000000
7996,0.630415,0.011003,0.239901,0.004187,-0.177550,0.174073,-9.768861,-0.001396,-0.001265,-0.002686,24.750,0.000000,0.000000
8002,0.631731,0.011026,0.219313,0.003828,-0.170367,0.245902,-9.776044,-0.000317,-0.001252,-0.000529,24.750,0.000000,0.000000
8008,0.632186,0.011034,0.075844,0.001324,-0.163184,0.260267,-9.754495,-0.004575,0.000891,0.003738,24.750,0.000000,0.000000
8014,0.632552,0.011040,0.060920,0.001063,-0.156001,0.231536,-9.768861,-0.001334,0.000882,0.001570,24.750,0.000000,0.000000
8020,0.633085,0.011049,0.088855,0.001551,-0.141635,0.296182,-9.790409,-0.000255,-0.000192,0.000489,24.750,0.000000,0.000000
8026,0.633740,0.011061,0.109256,0.001907,-0.177550,0.224353,-9.797592,-0.000252,0.000875,0.002615,24.750,0.000000,0.000000
8032,0.633371,0.011054,-0.061632,-0.001076,-0.156001,0.253085,-9.761678,-0.001315,0.002997,0.002589,24.750,0.000000,0.000000
8038,0.634142,0.011068,0.128626,0.002245,-0.156001,0.238719,-9.732946,0.000829,-0.000229,-0.001699,24.750,0.000000,0.000000
8044,0.635359,0.011089,0.202807,0.003540,-0.163184,0.253085,-9.790409,0.001886,-0.001292,-0.000616,24.750,0.000000,0.000000
8050,0.636001,0.011100,0.106917,0.001866,-0.148818,0.231536,-9.761678,-0.002394,-0.000213,0.000455,24.750,0.000000,0.000000
8056,0.636313,0.011106,0.052009,0.000908,-0.177550,0.253085,-9.783226,-0.001305,0.001919,-0.000615,24.750,0.000000,0.000000
8062,0.637595,0.011128,0.213772,0.003731,-0.191915,0.238719,-9.718580,0.002969,-0.000231,-0.002739,24.750,0.000000,0.000000
8068,0.638821,0.011150,0.204301,0.003566,-0.163184,0.281816,-9.718580,0.002939,-0.001294,-0.000581,24.750,0.000000,0.000000
8074,0.638582,0.011145,-0.039905,-0.000696,-0.112904,0.224353,-9.768861,-0.000286,0.000850,0.000490,24.750,0.000000,0.000000
8080,0.639325,0.011158,0.123815,0.002161,-0.156001,0.245902,-9.768861,-0.000283,-0.000224,-0.000580,24.750,0.000000,0.000000
8086,0.640552,0.011180,0.204505,0.003569,-0.191915,0.217170,-9.790409,-0.002411,-0.000222,0.001556,24.750,0.000000,0.000000
8092,0.641266,0.011192,0.119030,0.002077,-0.156001,0.281816,-9.783226,-0.002387,-0.000219,0.002606,24.750,0.000000,0.000000
8098,0.642206,0.011209,0.156667,0.002734,-0.170367,0.238719,-9.754495,-0.001298,-0.000217,-0.000616,24.750,0.000000,0.000000
8104,0.643151,0.011225,0.157486,0.002749,-0.170367,0.281816,-9.747313,0.000846,-0.000215,-0.001675,24.750,0.000000,0.000000
8110,0.643863,0.011238,0.118675,0.002071,-0.156001,0.281816,-9.811958,-0.001293,-0.000213,0.000472,24.750,0.000000,0.000000
8116,0.644578,0.011250,0.119101,0.002079,-0.156001,0.238719,-9.761678,-0.000215,-0.000211,0.001533,24.750,0.000000,0.000000
8122,0.645491,0.011266,0.152230,0.002657,-0.170367,0.253085,-9.819140,-0.000213,-0.000209,-0.000613,24.750,0.000000,0.000000
8128,0.645446,0.011265,-0.007426,-0.000130,-0.127270,0.224353,-9.740129,-0.000211,0.000859,-0.000607,24.750,0.000000,0.000000
8134,0.645695,0.011269,0.041399,0.000723,-0.148818,0.238719,-9.776044,-0.002339,0.000850,0.000464,24.750,0.000000,0.000000
8140,0.646020,0.011275,0.054295,0.000948,-0.127270,0.238719,-9.747313,-0.001250,-0.000224,-0.000606,24.750,0.000000,0.000000
8146,0.647403,0.011299,0.230421,0.004022,-0.177550,0.238719,-9.761678,-0.000173,-0.001287,0.001531,24.750,0.000000,0.000000
8152,0.648574,0.011320,0.195150,0.003406,-0.163184,0.238719,-9.797592,-0.000171,-0.001274,0.000450,24.750,0.000000,0.000000
8158,0.649577,0.011337,0.167224,0.002919,-0.177550,0.253085,-9.804775,-0.000169,-0.000196,-0.000619,24.750,0.000000,0.000000
8164,0.650295,0.011350,0.119644,0.002088,-0.156001,0.231536,-9.804775,0.001963,-0.000194,-0.003809,24.750,0.000000,0.000000
8170,0.650719,0.011357,0.070596,0.001232,-0.163184,0.296182,-9.804775,0.003009,0.000873,0.000490,24.750,0.000000,0.000000
8176,0.651630,0.011373,0.151901,0.002651,-0.170367,0.253085,-9.754495,0.000848,-0.000201,-0.000580,24.750,0.000000,0.000000
8182,0.653299,0.011402,0.278206,0.004856,-0.199098,0.238719,-9.790409,0.001905,-0.001264,-0.000574,24.750,0.000000,0.000000
8188,0.655127,0.011434,0.304619,0.005317,-0.184732,0.245902,-9.732946,-0.000245,-0.002317,0.001562,24.750,0.000000,0.000000
8194,0.655796,0.011446,0.111506,0.001946,-0.156001,0.296182,-9.768861,-0.002373,-0.000163,0.001547,24.750,0.000000,0.000000
8200,0.655283,0.011437,-0.085511,-0.001492,-0.148818,0.224353,-9.740129,0.001912,0.003035,-0.000600,24.750,0.000000,0.000000
8206,0.654393,0.011421,-0.148325,-0.002589,-0.148818,0.245902,-9.783226,0.001893,0.004070,0.001537,24.750,0.000000,0.000000
8212,0.653287,0.011402,-0.184415,-0.003219,-0.105721,0.238719,-9.783226,-0.002387,0.002964,0.000456,24.750,0.000000,0.000000
8218,0.654573,0.011424,0.214359,0.003741,-0.170367,0.253085,-9.754495,-0.001298,-0.001327,0.000452,24.750,0.000000,0.000000
8224,0.655856,0.011447,0.213897,0.003733,-0.170367,0.231536,-9.761678,0.001911,-0.001314,-0.000618,24.750,0.000000,0.000000
8230,0.656477,0.011458,0.103467,0.001806,-0.148818,0.245902,-9.754495,-0.000239,-0.000235,-0.002742,24.750,0.000000,0.000000
8236,0.657314,0.011472,0.139503,0.002435,-0.191915,0.267450,-9.740129,0.000829,0.000832,0.001546,24.750,0.000000,0.000000
8242,0.657817,0.011481,0.083910,0.001465,-0.170367,0.260267,-9.811958,0.000821,0.000824,0.003661,24.750,0.000000,0.000000
8248,0.657994,0.011484,0.029366,0.000513,-0.170367,0.267450,-9.740129,-0.000253,0.001881,0.000429,24.750,0.000000,0.000000
8254,0.658497,0.011493,0.083919,0.001465,-0.141635,0.238719,-9.768861,-0.000250,-0.000268,0.000425,24.750,0.000000,0.000000
8260,0.659262,0.011506,0.127443,0.002224,-0.134452,0.267450,-9.811958,0.000817,-0.001331,-0.000645,24.750,0.000000,0.000000
8266,0.660458,0.011527,0.199374,0.003480,-0.191915,0.238719,-9.790409,0.002940,-0.000252,0.000427,24.750,0.000000,0.000000
8272,0.660424,0.011527,-0.005719,-0.000100,-0.156001,0.253085,-9.718580,0.001845,0.001881,0.001488,24.750,0.000000,0.000000
8278,0.661234,0.011541,0.135136,0.002359,-0.163184,0.274633,-9.754495,-0.002434,-0.000269,-0.000658,24.750,0.000000,0.000000
8284,0.661261,0.011541,0.004420,0.000077,-0.134452,0.281816,-9.740129,-0.002410,0.000799,0.001479,24.750,0.000000,0.000000
8290,0.661699,0.011549,0.073051,0.001275,-0.163184,0.224353,-9.754495,-0.000255,0.000791,0.000399,24.750,0.000000,0.000000
8296,0.662402,0.011561,0.117074,0.002043,-0.206281,0.238719,-9.725763,-0.003449,0.001849,-0.001735,24.750,0.000000,0.000000
8302,0.661768,0.011550,-0.105663,-0.001844,-0.191915,0.238719,-9.797592,-0.001284,0.005026,0.001478,24.750,0.000000,0.000000
8308,0.662764,0.011567,0.166077,0.002899,-0.227830,0.224353,-9.768861,0.000860,0.001780,0.001463,24.750,0.000000,0.000000
8314,0.663399,0.011578,0.105735,0.001845,-0.148818,0.332096,-9.797592,0.000851,-0.000369,-0.001747,24.750,0.000000,0.000000
8320,0.663976,0.011589,0.096227,0.001679,-0.170367,0.224353,-9.732946,0.002973,0.000700,-0.000665,24.750,0.000000,0.000000
8326,0.664703,0.011601,0.121156,0.002115,-0.156001,0.260267,-9.797592,0.007205,-0.000372,-0.000658,24.750,0.000000,0.000000
8332,0.665639,0.011618,0.155929,0.002721,-0.170367,0.253085,-9.783226,0.007133,-0.000368,-0.001717,24.750,0.000000,0.000000
8338,0.666331,0.011630,0.115473,0.002015,-0.206281,0.253085,-9.776044,-0.000396,0.001766,0.000431,24.750,0.000000,0.000000
8344,0.667568,0.011651,0.206151,0.003598,-0.191915,0.274633,-9.790409,-0.001457,-0.000382,-0.001704,24.750,0.000000,0.000000
8350,0.668592,0.011669,0.170577,0.002977,-0.177550,0.224353,-9.768861,-0.000377,-0.000378,0.000444,24.750,0.000000,0.000000
8356,0.669000,0.011676,0.068008,0.001187,-0.134452,0.238719,-9.761678,0.000692,-0.000374,0.001505,24.750,0.000000,0.000000
8362,0.671140,0.011714,0.356726,0.006226,-0.206281,0.288999,-9.768861,0.002815,-0.002501,0.002555,24.750,0.000000,0.000000
8368,0.671945,0.011728,0.134158,0.002342,-0.163184,0.260267,-9.783226,0.004918,-0.000346,-0.000666,24.750,0.000000,0.000000
8374,0.672579,0.011739,0.105726,0.001845,-0.177550,0.260267,-9.768861,-0.000458,0.000723,0.000406,24.750,0.000000,0.000000
8380,0.673733,0.011759,0.192313,0.003356,-0.163184,0.281816,-9.790409,-0.000453,-0.001415,0.001467,24.750,0.000000,0.000000
8386,0.674517,0.011773,0.130610,0.002280,-0.163184,0.238719,-9.804775,0.000617,-0.000335,0.000387,24.750,0.000000,0.000000
8392,0.675000,0.011781,0.080477,0.001405,-0.141635,0.260267,-9.783226,0.000611,-0.000332,0.000383,24.750,0.000000,0.000000
8398,0.674902,0.011779,-0.016346,-0.000285,-0.127270,0.274633,-9.804775,-0.002591,0.000737,0.001444,24.750,0.000000,0.000000
8404,0.676774,0.011812,0.311965,0.005445,-0.213464,0.260267,-9.761678,-0.004696,-0.001401,-0.000701,24.750,0.000000,0.000000
8410,0.677236,0.011820,0.077026,0.001344,-0.141635,0.260267,-9.776044,0.001743,-0.000322,0.002502,24.750,0.000000,0.000000
8416,0.677399,0.011823,0.027214,0.000475,-0.199098,0.238719,-9.797592,-0.002536,0.002877,0.002477,24.750,0.000000,0.000000
8422,0.677151,0.011819,-0.041372,-0.000722,-0.141635,0.253085,-9.804775,-0.002511,0.001783,-0.000743,24.750,0.000000,0.000000
8428,0.678127,0.011836,0.162679,0.002839,-0.148818,0.260267,-9.718580,-0.001420,-0.001431,-0.000736,24.750,0.000000,0.000000
8434,0.679225,0.011855,0.183028,0.003194,-0.184732,0.209987,-9.740129,0.000725,-0.000351,0.000337,24.750,0.000000,0.000000
8440,0.679441,0.011858,0.035965,0.000628,-0.148818,0.224353,-9.797592,-0.000348,0.000718,-0.000732,24.750,0.000000,0.000000
8446,0.680433,0.011876,0.165401,0.002887,-0.177550,0.231536,-9.776044,-0.001410,-0.000355,-0.000725,24.750,0.000000,0.000000
8452,0.681640,0.011897,0.201206,0.003512,-0.141635,0.310547,-9.718580,-0.002461,-0.002482,0.002478,24.750,0.000000,0.000000
8458,0.683163,0.011923,0.253838,0.004430,-0.163184,0.231536,-9.768861,0.000759,-0.002457,-0.002873,24.750,0.000000,0.000000
8464,0.683623,0.011931,0.076591,0.001337,-0.141635,0.296182,-9.811958,-0.000313,-0.000302,-0.001779,24.750,0.000000,0.000000
8470,0.684206,0.011942,0.097188,0.001696,-0.177550,0.231536,-9.776044,-0.002441,0.000766,0.001435,24.750,0.000000,0.000000
8476,0.685164,0.011958,0.159593,0.002785,-0.177550,0.303365,-9.747313,-0.000286,-0.000306,0.001421,24.750,0.000000,0.000000
8482,0.686080,0.011974,0.152719,0.002665,-0.148818,0.260267,-9.776044,0.003978,-0.001369,0.000341,24.750,0.000000,0.000000
8488,0.688022,0.012008,0.323660,0.005649,-0.220647,0.245902,-9.725763,-0.000323,-0.001355,-0.000728,24.750,0.000000,0.000000
8494,0.688914,0.012024,0.148637,0.002594,-0.148818,0.231536,-9.783226,-0.003515,-0.001341,0.001410,24.750,0.000000,0.000000
8500,0.690115,0.012045,0.200210,0.003494,-0.170367,0.267450,-9.783226,0.002911,-0.001328,-0.000734,24.750,0.000000,0.000000
8506,0.690775,0.012056,0.109914,0.001918,-0.184732,0.296182,-9.797592,0.000752,0.000816,-0.000727,24.750,0.000000,0.000000
8512,0.691817,0.012074,0.173698,0.003032,-0.184732,0.245902,-9.740129,-0.000321,-0.000258,-0.000720,24.750,0.000000,0.000000
8518,0.692644,0.012089,0.137840,0.002406,-0.170367,0.303365,-9.776044,0.002878,-0.000255,-0.000713,24.750,0.000000,0.000000
8524,0.693681,0.012107,0.172800,0.003016,-0.184732,0.238719,-9.711398,0.000719,-0.000253,0.000360,24.750,0.000000,0.000000
8530,0.695094,0.012132,0.235535,0.004111,-0.213464,0.238719,-9.776044,-0.003550,-0.000250,0.001421,24.750,0.000000,0.000000
8536,0.695504,0.012139,0.068400,0.001194,-0.141635,0.260267,-9.754495,-0.000318,-0.000247,0.000342,24.750,0.000000,0.000000
8542,0.697082,0.012166,0.262891,0.004588,-0.199098,0.288999,-9.754495,0.000750,-0.001310,0.001404,24.750,0.000000,0.000000
8548,0.698430,0.012190,0.224765,0.003923,-0.184732,0.260267,-9.797592,0.000743,-0.001297,0.002455,24.750,0.000000,0.000000
8554,0.699890,0.012215,0.243254,0.004246,-0.191915,0.274633,-9.732946,0.000735,-0.001284,0.002431,24.750,0.000000,0.000000
8560,0.698973,0.012199,-0.152825,-0.002667,-0.127270,0.245902,-9.761678,-0.001403,0.002990,0.000276,24.750,0.000000,0.000000
8566,0.699683,0.012212,0.118354,0.002066,-0.163184,0.224353,-9.776044,-0.001389,-0.000236,-0.001858,24.750,0.000000,0.000000
8572,0.700546,0.012227,0.143861,0.002511,-0.148818,0.267450,-9.783226,-0.000309,-0.001299,-0.000774,24.750,0.000000,0.000000
8578,0.701236,0.012239,0.115055,0.002008,-0.163184,0.253085,-9.761678,0.003955,-0.000221,0.000299,24.750,0.000000,0.000000
8584,0.701147,0.012237,-0.014897,-0.000260,-0.134452,0.217170,-9.725763,0.000719,0.000847,0.002427,24.750,0.000000,0.000000
8590,0.701337,0.012241,0.031679,0.000553,-0.127270,0.224353,-9.776044,0.002843,-0.000227,-0.000793,24.750,0.000000,0.000000
8596,0.701553,0.012244,0.035983,0.000628,-0.156001,0.231536,-9.761678,-0.001447,0.000841,0.001345,24.750,0.000000,0.000000
TUNING: initial gyro bias persisted to NVS after stability check
8602,0.702189,0.012256,0.105939,0.001849,-0.184732,0.332096,-9.711398,-0.000367,0.000832,0.001332,24.750,0.000000,0.000000
8695,0.700647,0.012229,-0.016572,-0.000289,-0.184732,0.260267,-9.754495,-0.001429,0.002955,0.000253,24.750,0.000000,0.000000
8701,0.700322,0.012223,-0.054224,-0.000946,-0.141635,0.253085,-9.783226,-0.001414,0.001860,-0.000815,24.750,0.000000,0.000000
8707,0.701506,0.012244,0.197311,0.003444,-0.170367,0.253085,-9.783226,0.003926,-0.001355,-0.000807,24.750,0.000000,0.000000
8713,0.702847,0.012267,0.223600,0.003903,-0.156001,0.267450,-9.747313,0.002822,-0.002407,0.000267,24.750,0.000000,0.000000
8719,0.703713,0.012282,0.144208,0.002517,-0.148818,0.253085,-9.768861,0.002793,-0.001317,-0.000801,24.750,0.000000,0.000000
8725,0.704597,0.012298,0.147320,0.002571,-0.177550,0.224353,-9.819140,-0.001496,-0.000239,-0.000793,24.750,0.000000,0.000000
8731,0.705541,0.012314,0.157459,0.002748,-0.156001,0.231536,-9.790409,0.000650,-0.001302,0.000280,24.750,0.000000,0.000000
8737,0.707116,0.012342,0.262420,0.004580,-0.199098,0.245902,-9.754495,0.004905,-0.001289,-0.002919,24.750,0.000000,0.000000
8743,0.707710,0.012352,0.098975,0.001727,-0.156001,0.245902,-9.718580,0.001660,-0.000210,-0.001824,24.750,0.000000,0.000000
8749,0.707713,0.012352,0.000534,0.000009,-0.141635,0.245902,-9.811958,0.001643,0.000857,-0.001806,24.750,0.000000,0.000000
8755,0.707748,0.012353,0.005843,0.000102,-0.170367,0.260267,-9.754495,-0.001569,0.001914,0.001408,24.750,0.000000,0.000000
8761,0.708370,0.012363,0.103733,0.001810,-0.184732,0.253085,-9.761678,-0.001554,0.000829,-0.000737,24.750,0.000000,0.000000
8767,0.707383,0.012346,-0.164574,-0.002872,-0.148818,0.274633,-9.761678,-0.004734,0.004017,0.000336,24.750,0.000000,0.000000
8773,0.707922,0.012356,0.089833,0.001568,-0.177550,0.260267,-9.732946,-0.000425,0.000781,0.000333,24.750,0.000000,0.000000
8779,0.708509,0.012366,0.097855,0.001708,-0.156001,0.245902,-9.768861,0.000644,-0.000292,0.001395,24.750,0.000000,0.000000
8785,0.708957,0.012374,0.074590,0.001302,-0.170367,0.238719,-9.747313,0.000638,0.000776,-0.001815,24.750,0.000000,0.000000
8791,0.709293,0.012379,0.055993,0.000977,-0.163184,0.253085,-9.797592,0.000631,0.000768,-0.001797,24.750,0.000000,0.000000
8797,0.710204,0.012395,0.151821,0.002650,-0.177550,0.253085,-9.747313,0.007017,-0.000305,-0.000714,24.750,0.000000,0.000000
8803,0.711101,0.012411,0.149526,0.002610,-0.177550,0.188439,-9.761678,0.002685,-0.000302,0.000359,24.750,0.000000,0.000000
8809,0.710863,0.012407,-0.039620,-0.000692,-0.148818,0.267450,-9.768861,-0.003733,0.001832,-0.000710,24.750,0.000000,0.000000
8815,0.712409,0.012434,0.257608,0.004496,-0.199098,0.224353,-9.797592,-0.001565,-0.001382,0.002493,24.750,0.000000,0.000000
8821,0.713281,0.012449,0.145462,0.002539,-0.177550,0.209987,-9.754495,-0.000484,-0.000303,0.003533,24.750,0.000000,0.000000
8827,0.714088,0.012463,0.134354,0.002345,-0.199098,0.231536,-9.783226,-0.001545,0.000765,0.002433,24.750,0.000000,0.000000
8833,0.715377,0.012486,0.214938,0.003751,-0.206281,0.245902,-9.754495,-0.001529,-0.000308,0.001343,24.750,0.000000,0.000000
8839,0.715466,0.012487,0.014781,0.000258,-0.148818,0.288999,-9.819140,-0.000449,0.000761,0.002395,24.750,0.000000,0.000000
8845,0.716013,0.012497,0.091131,0.001591,-0.127270,0.267450,-9.761678,-0.000444,-0.001378,0.000240,24.750,0.000000,0.000000
8851,0.716690,0.012509,0.112876,0.001970,-0.163184,0.202805,-9.776044,-0.000440,-0.000299,0.000238,24.750,0.000000,0.000000
8857,0.717370,0.012520,0.113321,0.001978,-0.163184,0.224353,-9.783226,0.000630,-0.000296,-0.000830,24.750,0.000000,0.000000
8863,0.717943,0.012530,0.095543,0.001668,-0.156001,0.274633,-9.732946,-0.002572,-0.000293,0.001309,24.750,0.000000,0.000000
8869,0.718441,0.012539,0.082967,0.001448,-0.177550,0.253085,-9.804775,-0.003612,0.000776,0.000231,24.750,0.000000,0.000000
8875,0.718565,0.012541,0.020686,0.000361,-0.177550,0.253085,-9.811958,0.000685,0.001833,0.001294,24.750,0.000000,0.000000
8881,0.719903,0.012565,0.223057,0.003893,-0.184732,0.253085,-9.804775,-0.000387,-0.001381,0.000215,24.750,0.000000,0.000000
8887,0.720944,0.012583,0.173476,0.003028,-0.163184,0.231536,-9.783226,-0.000383,-0.001367,-0.000852,24.750,0.000000,0.000000
8893,0.721575,0.012594,0.105139,0.001835,-0.134452,0.260267,-9.740129,-0.002510,-0.001354,0.000222,24.750,0.000000,0.000000
8899,0.721827,0.012598,0.041995,0.000733,-0.134452,0.260267,-9.811958,-0.001419,-0.000275,-0.000846,24.750,0.000000,0.000000
8905,0.722085,0.012603,0.043071,0.000752,-0.134452,0.274633,-9.732946,-0.000340,-0.000272,0.000228,24.750,0.000000,0.000000
8911,0.722340,0.012607,0.042351,0.000739,-0.134452,0.245902,-9.747313,-0.003532,-0.000269,0.000226,24.750,0.000000,0.000000
8917,0.722630,0.012612,0.048425,0.000845,-0.163184,0.209987,-9.783226,-0.004562,0.000799,-0.000842,24.750,0.000000,0.000000
8923,0.722055,0.012602,-0.095783,-0.001672,-0.156001,0.217170,-9.804775,-0.001321,0.002921,0.003428,24.750,0.000000,0.000000
8929,0.722346,0.012607,0.048443,0.000845,-0.163184,0.238719,-9.747313,-0.000242,0.000761,0.002328,24.750,0.000000,0.000000
8935,0.723862,0.012634,0.252699,0.004410,-0.170367,0.274633,-9.768861,0.001891,-0.002442,-0.001956,24.750,0.000000,0.000000
8941,0.723856,0.012634,-0.000969,-0.000017,-0.141635,0.245902,-9.732946,-0.000259,0.000778,0.000194,24.750,0.000000,0.000000
8947,0.723837,0.012633,-0.003193,-0.000056,-0.141635,0.217170,-9.776044,0.000809,0.000770,0.001257,24.750,0.000000,0.000000
8953,0.724344,0.012642,0.084435,0.001474,-0.127270,0.260267,-9.776044,-0.001330,-0.001368,0.002310,24.750,0.000000,0.000000
8959,0.725280,0.012659,0.156089,0.002724,-0.184732,0.274633,-9.797592,-0.000251,-0.000289,0.002287,24.750,0.000000,0.000000
8965,0.726606,0.012682,0.220914,0.003856,-0.184732,0.267450,-9.783226,0.002947,-0.001351,-0.000932,24.750,0.000000,0.000000
8971,0.726917,0.012687,0.051840,0.000905,-0.163184,0.217170,-9.725763,0.000787,0.000793,-0.003053,24.750,0.000000,0.000000
8977,0.726896,0.012687,-0.003531,-0.000062,-0.141635,0.245902,-9.797592,-0.004547,0.000785,-0.000892,24.750,0.000000,0.000000
8983,0.727904,0.012704,0.168016,0.002932,-0.163184,0.267450,-9.768861,-0.003436,-0.001354,0.001247,24.750,0.000000,0.000000
8989,0.729764,0.012737,0.310035,0.005411,-0.170367,0.231536,-9.754495,-0.001271,-0.003471,-0.001961,24.750,0.000000,0.000000
8995,0.730550,0.012751,0.131045,0.002287,-0.148818,0.281816,-9.819140,-0.001259,-0.001305,-0.000876,24.750,0.000000,0.000000
9001,0.731433,0.012766,0.147151,0.002568,-0.156001,0.245902,-9.776044,0.000885,-0.001292,0.000198,24.750,0.000000,0.000000
9007,0.732225,0.012780,0.132006,0.002304,-0.148818,0.245902,-9.732946,0.001941,-0.001279,-0.000869,24.750,0.000000,0.000000
9013,0.732706,0.012788,0.080148,0.001399,-0.127270,0.231536,-9.776044,-0.001274,-0.001267,-0.001926,24.750,0.000000,0.000000
9019,0.733369,0.012800,0.110430,0.001927,-0.141635,0.217170,-9.776044,0.001934,-0.001254,0.000224,24.750,0.000000,0.000000
9025,0.733942,0.012810,0.095498,0.001667,-0.134452,0.224353,-9.761678,0.004046,-0.001241,-0.001909,24.750,0.000000,0.000000
9031,0.734915,0.012827,0.162270,0.002832,-0.163184,0.238719,-9.754495,0.001875,-0.001229,-0.001890,24.750,0.000000,0.000000
9037,0.735147,0.012831,0.038589,0.000674,-0.112904,0.260267,-9.783226,0.000791,-0.001217,0.001325,24.750,0.000000,0.000000
9043,0.735921,0.012844,0.129098,0.002253,-0.177550,0.231536,-9.790409,0.000783,-0.000139,0.000247,24.750,0.000000,0.000000
9049,0.735706,0.012840,-0.035965,-0.000628,-0.184732,0.274633,-9.725763,-0.001356,0.003058,0.001309,24.750,0.000000,0.000000
9055,0.735699,0.012840,-0.001138,-0.000020,-0.148818,0.245902,-9.783226,0.001854,0.000897,0.003427,24.750,0.000000,0.000000
9061,0.736621,0.012856,0.153670,0.002682,-0.134452,0.288999,-9.747313,0.003966,-0.002308,0.000197,24.750,0.000000,0.000000
9067,0.737197,0.012867,0.096085,0.001677,-0.163184,0.245902,-9.783226,-0.000335,-0.000154,0.000195,24.750,0.000000,0.000000
9073,0.737400,0.012870,0.033769,0.000589,-0.163184,0.281816,-9.776044,-0.000332,0.000913,0.001258,24.750,0.000000,0.000000
9079,0.738871,0.012896,0.245158,0.004279,-0.148818,0.245902,-9.797592,0.003933,-0.003358,0.000180,24.750,0.000000,0.000000
9085,0.738919,0.012897,0.008075,0.000141,-0.177550,0.224353,-9.747313,0.001763,0.002002,-0.000887,24.750,0.000000,0.000000
9091,0.738818,0.012895,-0.016915,-0.000295,-0.141635,0.267450,-9.754495,-0.001451,0.000917,0.001253,24.750,0.000000,0.000000
9097,0.739850,0.012913,0.172035,0.003003,-0.170367,0.224353,-9.783226,-0.002501,-0.001223,0.001240,24.750,0.000000,0.000000
9103,0.740513,0.012924,0.110493,0.001928,-0.170367,0.231536,-9.768861,-0.001411,-0.000145,0.001228,24.750,0.000000,0.000000
9109,0.741507,0.012942,0.165694,0.002892,-0.191915,0.260267,-9.740129,0.001799,-0.000144,-0.001981,24.750,0.000000,0.000000
9115,0.741718,0.012945,0.035067,0.000612,-0.163184,0.274633,-9.747313,0.000716,0.000923,-0.000895,24.750,0.000000,0.000000
9121,0.742983,0.012967,0.210882,0.003681,-0.213464,0.245902,-9.797592,0.000708,-0.000152,0.000179,24.750,0.000000,0.000000
9127,0.744197,0.012989,0.202309,0.003531,-0.184732,0.253085,-9.783226,0.001767,-0.001215,0.002308,24.750,0.000000,0.000000
9133,0.744291,0.012990,0.015653,0.000273,-0.156001,0.245902,-9.747313,-0.000382,0.000927,0.000154,24.750,0.000000,0.000000
9139,0.744560,0.012995,0.044894,0.000784,-0.141635,0.281816,-9.740129,-0.002508,-0.000147,-0.000913,24.750,0.000000,0.000000
9145,0.745427,0.013010,0.144439,0.002521,-0.184732,0.267450,-9.776044,0.001778,-0.000146,-0.000904,24.750,0.000000,0.000000
9151,0.746457,0.013028,0.171680,0.002996,-0.170367,0.245902,-9.768861,0.002825,-0.001210,-0.000895,24.750,0.000000,0.000000
9157,0.747747,0.013051,0.215106,0.003754,-0.163184,0.296182,-9.790409,0.002797,-0.002263,-0.001951,24.750,0.000000,0.000000
9163,0.748864,0.013070,0.186132,0.003249,-0.177550,0.274633,-9.754495,0.000639,-0.001175,-0.000866,24.750,0.000000,0.000000
9169,0.749603,0.013083,0.123103,0.002149,-0.177550,0.260267,-9.747313,-0.001498,-0.000098,0.000208,24.750,0.000000,0.000000
9175,0.749169,0.013075,-0.072268,-0.001261,-0.120087,0.231536,-9.754495,0.000647,0.000969,-0.000860,24.750,0.000000,0.000000
9181,0.749289,0.013078,0.020019,0.000349,-0.134452,0.253085,-9.776044,0.001706,-0.000106,0.001280,24.750,0.000000,0.000000
9187,0.749834,0.013087,0.090856,0.001586,-0.163184,0.253085,-9.747313,0.000624,-0.000105,-0.000864,24.750,0.000000,0.000000
9193,0.750550,0.013100,0.119288,0.002082,-0.148818,0.260267,-9.776044,-0.000448,-0.001170,-0.002986,24.750,0.000000,0.000000
9199,0.752462,0.013133,0.318564,0.005560,-0.184732,0.253085,-9.797592,-0.001509,-0.003289,0.001305,24.750,0.000000,0.000000
9205,0.752181,0.013128,-0.046842,-0.000818,-0.105721,0.238719,-9.747313,0.000637,-0.000060,-0.001904,24.750,0.000000,0.000000
9211,0.752634,0.013136,0.075639,0.001320,-0.184732,0.245902,-9.797592,0.002761,0.001006,-0.001885,24.750,0.000000,0.000000
9217,0.753318,0.013148,0.113872,0.001987,-0.148818,0.238719,-9.768861,0.001668,-0.001135,-0.000801,24.750,0.000000,0.000000
9223,0.755356,0.013183,0.339722,0.005929,-0.220647,0.238719,-9.819140,0.000586,-0.002188,-0.000793,24.750,0.000000,0.000000
9229,0.756913,0.013211,0.259583,0.004531,-0.134452,0.253085,-9.790409,-0.000485,-0.004297,-0.000785,24.875,0.000000,0.000000
9235,0.756540,0.013204,-0.062308,-0.001087,-0.127270,0.238719,-9.768861,-0.003676,0.001072,-0.002907,24.875,0.000000,0.000000
9241,0.756233,0.013199,-0.051049,-0.000891,-0.184732,0.238719,-9.732946,-0.000443,0.003192,0.000318,24.875,0.000000,0.000000
9247,0.757230,0.013216,0.166059,0.002898,-0.199098,0.260267,-9.768861,0.000626,-0.000036,0.000314,24.875,0.000000,0.000000
9253,0.757254,0.013217,0.004038,0.000070,-0.156001,0.245902,-9.790409,0.000620,0.001030,-0.000754,24.875,0.000000,0.000000
9259,0.756974,0.013212,-0.046584,-0.000813,-0.134452,0.224353,-9.776044,-0.001517,0.001020,0.000319,24.875,0.000000,0.000000
9265,0.757861,0.013227,0.147810,0.002580,-0.191915,0.274633,-9.790409,-0.001501,-0.000056,0.001381,24.875,0.000000,0.000000
9271,0.758042,0.013230,0.030060,0.000525,-0.141635,0.231536,-9.783226,-0.002552,-0.000055,0.001367,24.875,0.000000,0.000000
9277,0.757689,0.013224,-0.058839,-0.001027,-0.156001,0.245902,-9.761678,-0.002526,0.002076,0.002419,24.875,0.000000,0.000000
9283,0.757242,0.013216,-0.074412,-0.001299,-0.148818,0.253085,-9.797592,-0.002501,0.002055,0.001329,24.875,0.000000,0.000000
9289,0.757849,0.013227,0.101208,0.001766,-0.170367,0.281816,-9.783226,-0.000345,-0.000096,0.000251,24.875,0.000000,0.000000
9295,0.758270,0.013234,0.070134,0.001224,-0.156001,0.202805,-9.776044,0.000723,-0.000095,-0.001882,24.875,0.000000,0.000000
9301,0.757798,0.013226,-0.078672,-0.001373,-0.120087,0.231536,-9.761678,0.001782,0.000971,0.001332,24.875,0.000000,0.000000
9307,0.757605,0.013223,-0.032194,-0.000562,-0.112904,0.245902,-9.797592,0.000698,-0.000104,-0.000812,24.875,0.000000,0.000000
9313,0.757849,0.013227,0.040714,0.000711,-0.141635,0.238719,-9.740129,0.002822,-0.000103,-0.003999,24.875,0.000000,0.000000
9319,0.759296,0.013252,0.241164,0.004209,-0.177550,0.209987,-9.819140,0.003859,-0.002232,-0.001829,24.875,0.000000,0.000000
9325,0.759751,0.013260,0.075844,0.001324,-0.134452,0.253085,-9.797592,0.000625,-0.001145,0.000320,24.875,0.000000,0.000000
9331,0.760484,0.013273,0.122116,0.002131,-0.206281,0.238719,-9.747313,-0.000447,0.000997,0.001382,24.875,0.000000,0.000000
9337,0.760502,0.013273,0.002953,0.000052,-0.156001,0.231536,-9.783226,0.002753,0.000987,0.001368,24.875,0.000000,0.000000
9343,0.760911,0.013280,0.068302,0.001192,-0.156001,0.267450,-9.783226,0.001661,-0.000088,-0.001841,24.875,0.000000,0.000000
9349,0.761483,0.013290,0.095231,0.001662,-0.141635,0.231536,-9.790409,0.001644,-0.001152,-0.001823,24.875,0.000000,0.000000
9355,0.762291,0.013304,0.134745,0.002352,-0.184732,0.260267,-9.747313,-0.000503,-0.000075,-0.000739,24.875,0.000000,0.000000
9361,0.762475,0.013308,0.030665,0.000535,-0.141635,0.231536,-9.783226,-0.002629,-0.000075,0.000333,24.875,0.000000,0.000000
9367,0.763431,0.013324,0.159309,0.002780,-0.170367,0.253085,-9.740129,-0.002602,-0.001139,0.001395,24.875,0.000000,0.000000
9373,0.763323,0.013323,-0.017974,-0.000314,-0.148818,0.245902,-9.768861,-0.004707,0.001003,0.003512,24.875,0.000000,0.000000
9379,0.763071,0.013318,-0.041986,-0.000733,-0.163184,0.238719,-9.797592,-0.000399,0.002058,0.000281,24.875,0.000000,0.000000
9385,0.764469,0.013342,0.232876,0.004064,-0.148818,0.217170,-9.776044,0.003867,-0.003289,-0.000787,24.875,0.000000,0.000000
9391,0.765797,0.013366,0.221341,0.003863,-0.170367,0.245902,-9.740129,0.002763,-0.002191,-0.000779,24.875,0.000000,0.000000
9397,0.765197,0.013355,-0.099936,-0.001744,-0.112904,0.238719,-9.740129,0.001670,0.001027,0.000294,24.875,0.000000,0.000000
9403,0.765269,0.013356,0.011917,0.000208,-0.134452,0.245902,-9.761678,0.003784,-0.000049,0.000291,24.875,0.000000,0.000000
9409,0.765544,0.013361,0.045819,0.000800,-0.148818,0.224353,-9.790409,0.001615,-0.000048,-0.000777,24.875,0.000000,0.000000
9415,0.766851,0.013384,0.217872,0.003803,-0.220647,0.245902,-9.711398,0.003730,-0.000048,-0.000770,24.875,0.000000,0.000000
